,timestamp_x,ACCEL_X,ACCEL_Y,ACCEL_Z,timestamp_y,GYRO_X,GYRO_Y,GYRO_Z
0,2016-03-15 21:27:17.70,-0.697,-0.162,0.729,2016-03-15 21:27:18.49,-3.293,2.195,-1.89
1,2016-03-15 21:27:17.70,-0.696,-0.163,0.754,2016-03-15 21:27:18.49,-1.646,1.037,-1.159
2,2016-03-15 21:27:17.71,-0.694,-0.159,0.75,2016-03-15 21:27:18.50,-2.5,2.378,0.244
3,2016-03-15 21:27:17.71,-0.687,-0.155,0.744,2016-03-15 21:27:18.50,-2.012,0.0,0.854
4,2016-03-15 21:27:17.71,-0.691,-0.155,0.75,2016-03-15 21:27:18.50,-1.22,0.732,1.098
5,2016-03-15 21:27:17.71,-0.701,-0.157,0.75,2016-03-15 21:27:18.50,-0.122,0.854,0.305
6,2016-03-15 21:27:17.71,-0.689,-0.153,0.733,2016-03-15 21:27:18.50,-0.366,-1.463,-0.183
7,2016-03-15 21:27:17.71,-0.694,-0.153,0.744,2016-03-15 21:27:18.50,-1.098,-1.463,-0.854
8,2016-03-15 21:27:17.71,-0.701,-0.16,0.745,2016-03-15 21:27:18.50,-1.159,1.22,-0.976
9,2016-03-15 21:27:17.71,-0.692,-0.167,0.742,2016-03-15 21:27:18.50,-2.256,1.707,-0.427
10,2016-03-15 21:27:17.71,-0.695,-0.163,0.743,2016-03-15 21:27:18.50,-1.951,-1.037,0.427
11,2016-03-15 21:27:17.71,-0.705,-0.163,0.745,2016-03-15 21:27:18.50,-0.854,1.402,1.22
12,2016-03-15 21:27:17.71,-0.701,-0.161,0.732,2016-03-15 21:27:18.50,-0.061,1.098,1.524
13,2016-03-15 21:27:17.71,-0.702,-0.158,0.749,2016-03-15 21:27:18.50,-1.341,1.646,0.549
14,2016-03-15 21:27:17.71,-0.694,-0.158,0.726,2016-03-15 21:27:18.50,-2.683,3.171,0.488
15,2016-03-15 21:27:17.71,-0.688,-0.162,0.744,2016-03-15 21:27:18.50,-2.5,2.439,0.732
16,2016-03-15 21:27:17.71,-0.7,-0.158,0.748,2016-03-15 21:27:18.50,0.244,-0.366,0.732
17,2016-03-15 21:27:17.71,-0.7,-0.161,0.743,2016-03-15 21:27:18.50,0.427,-1.28,0.671
18,2016-03-15 21:27:17.71,-0.7,-0.163,0.74,2016-03-15 21:27:18.50,1.402,-2.134,0.366
19,2016-03-15 21:27:17.71,-0.7,-0.163,0.738,2016-03-15 21:27:18.50,0.183,1.402,1.159
20,2016-03-15 21:27:17.71,-0.701,-0.158,0.739,2016-03-15 21:27:18.50,0.671,2.866,0.793
21,2016-03-15 21:27:17.71,-0.703,-0.162,0.737,2016-03-15 21:27:18.50,1.28,2.561,0.854
22,2016-03-15 21:27:17.71,-0.705,-0.156,0.743,2016-03-15 21:27:18.50,0.976,1.098,0.732
23,2016-03-15 21:27:17.71,-0.705,-0.154,0.745,2016-03-15 21:27:18.50,-0.244,1.098,0.488
24,2016-03-15 21:27:17.71,-0.702,-0.158,0.723,2016-03-15 21:27:18.50,-0.793,0.915,0.549
25,2016-03-15 21:27:17.71,-0.702,-0.161,0.736,2016-03-15 21:27:18.50,-0.427,0.854,0.732
26,2016-03-15 21:27:17.71,-0.711,-0.163,0.74,2016-03-15 21:27:18.50,-1.098,1.707,0.427
27,2016-03-15 21:27:17.71,-0.698,-0.16,0.734,2016-03-15 21:27:18.50,-1.524,0.915,0.305
28,2016-03-15 21:27:17.71,-0.712,-0.163,0.742,2016-03-15 21:27:18.50,-0.732,-0.244,0.549
29,2016-03-15 21:27:17.71,-0.706,-0.162,0.721,2016-03-15 21:27:18.50,0.305,1.89,0.671
30,2016-03-15 21:27:17.71,-0.715,-0.164,0.738,2016-03-15 21:27:18.50,0.0,2.012,0.305
31,2016-03-15 21:27:17.71,-0.709,-0.16,0.732,2016-03-15 21:27:18.50,-0.366,1.341,0.061
32,2016-03-15 21:27:17.71,-0.701,-0.162,0.717,2016-03-15 21:27:18.50,-1.341,3.476,0.244
33,2016-03-15 21:27:17.71,-0.71,-0.162,0.737,2016-03-15 21:27:18.50,-0.61,1.463,0.366
34,2016-03-15 21:27:17.71,-0.719,-0.162,0.736,2016-03-15 21:27:18.50,0.366,3.537,0.427
35,2016-03-15 21:27:17.71,-0.711,-0.16,0.725,2016-03-15 21:27:18.50,0.976,-0.122,0.61
36,2016-03-15 21:27:17.71,-0.71,-0.161,0.726,2016-03-15 21:27:18.50,0.122,-0.793,0.549
37,2016-03-15 21:27:17.71,-0.714,-0.161,0.729,2016-03-15 21:27:18.50,-1.646,3.049,0.732
38,2016-03-15 21:27:17.71,-0.723,-0.163,0.725,2016-03-15 21:27:18.50,-1.159,3.354,0.61
39,2016-03-15 21:27:17.71,-0.716,-0.161,0.716,2016-03-15 21:27:18.50,-0.061,3.171,0.793
40,2016-03-15 21:27:17.71,-0.71,-0.162,0.729,2016-03-15 21:27:18.50,0.61,2.378,1.098
41,2016-03-15 21:27:17.71,-0.729,-0.162,0.732,2016-03-15 21:27:18.50,0.549,2.744,0.793
42,2016-03-15 21:27:17.72,-0.717,-0.16,0.715,2016-03-15 21:27:18.50,-0.183,2.012,0.549
43,2016-03-15 21:27:17.72,-0.719,-0.16,0.727,2016-03-15 21:27:18.50,0.305,0.427,0.305
44,2016-03-15 21:27:17.72,-0.722,-0.159,0.722,2016-03-15 21:27:18.51,-0.244,2.317,0.366
45,2016-03-15 21:27:17.72,-0.722,-0.16,0.732,2016-03-15 21:27:18.51,-0.122,2.378,0.244
46,2016-03-15 21:27:17.72,-0.721,-0.159,0.743,2016-03-15 21:27:18.51,1.402,-0.183,0.244
47,2016-03-15 21:27:17.72,-0.71,-0.152,0.725,2016-03-15 21:27:18.51,1.707,-0.122,0.549
48,2016-03-15 21:27:17.72,-0.708,-0.147,0.737,2016-03-15 21:27:18.51,1.524,-0.427,0.671
49,2016-03-15 21:27:17.72,-0.712,-0.15,0.741,2016-03-15 21:27:18.51,2.439,-0.671,0.854
50,2016-03-15 21:27:17.72,-0.701,-0.148,0.732,2016-03-15 21:27:18.51,3.963,-3.537,1.22
51,2016-03-15 21:27:17.72,-0.691,-0.148,0.745,2016-03-15 21:27:18.51,4.085,-7.134,1.341
52,2016-03-15 21:27:17.72,-0.698,-0.152,0.749,2016-03-15 21:27:18.51,2.805,-5.305,0.915
53,2016-03-15 21:27:17.72,-0.694,-0.152,0.746,2016-03-15 21:27:18.51,2.5,-8.78,1.159
54,2016-03-15 21:27:17.72,-0.691,-0.149,0.746,2016-03-15 21:27:18.51,1.402,-11.341,0.671
55,2016-03-15 21:27:17.72,-0.691,-0.149,0.75,2016-03-15 21:27:18.51,-1.402,-6.159,0.244
56,2016-03-15 21:27:17.72,-0.694,-0.15,0.752,2016-03-15 21:27:18.51,-1.585,-1.707,0.183
57,2016-03-15 21:27:17.72,-0.688,-0.149,0.754,2016-03-15 21:27:18.51,0.061,-1.707,0.671
58,2016-03-15 21:27:17.72,-0.686,-0.147,0.752,2016-03-15 21:27:18.51,0.488,-3.171,0.549
59,2016-03-15 21:27:17.72,-0.687,-0.15,0.753,2016-03-15 21:27:18.51,-0.061,-2.195,0.122
60,2016-03-15 21:27:17.72,-0.686,-0.149,0.753,2016-03-15 21:27:18.51,0.0,-2.317,0.0
61,2016-03-15 21:27:17.72,-0.688,-0.147,0.756,2016-03-15 21:27:18.51,0.915,-2.5,-0.061
62,2016-03-15 21:27:17.72,-0.686,-0.149,0.756,2016-03-15 21:27:18.51,0.793,-1.402,0.244
63,2016-03-15 21:27:17.72,-0.686,-0.147,0.76,2016-03-15 21:27:18.51,0.671,-1.037,0.427
64,2016-03-15 21:27:17.72,-0.683,-0.148,0.753,2016-03-15 21:27:18.51,0.671,-1.159,0.366
65,2016-03-15 21:27:17.72,-0.68,-0.146,0.76,2016-03-15 21:27:18.51,0.366,-1.402,0.244
66,2016-03-15 21:27:17.72,-0.689,-0.148,0.762,2016-03-15 21:27:18.51,0.427,-1.22,0.122
67,2016-03-15 21:27:17.72,-0.669,-0.145,0.75,2016-03-15 21:27:18.51,0.366,-0.854,0.122
68,2016-03-15 21:27:17.72,-0.673,-0.146,0.771,2016-03-15 21:27:18.51,0.61,-1.707,0.183
69,2016-03-15 21:27:17.72,-0.684,-0.152,0.769,2016-03-15 21:27:18.51,0.488,-1.22,0.244
70,2016-03-15 21:27:17.72,-0.675,-0.146,0.756,2016-03-15 21:27:18.51,0.915,-2.866,0.427
71,2016-03-15 21:27:17.72,-0.668,-0.147,0.766,2016-03-15 21:27:18.51,1.341,-6.585,0.061
72,2016-03-15 21:27:17.72,-0.671,-0.146,0.767,2016-03-15 21:27:18.51,-0.915,-0.427,0.0
73,2016-03-15 21:27:17.72,-0.674,-0.147,0.761,2016-03-15 21:27:18.51,-1.22,-0.122,0.549
74,2016-03-15 21:27:17.72,-0.675,-0.145,0.758,2016-03-15 21:27:18.51,0.366,-1.585,0.854
75,2016-03-15 21:27:17.72,-0.676,-0.146,0.759,2016-03-15 21:27:18.51,0.244,-0.732,0.61
76,2016-03-15 21:27:17.72,-0.678,-0.148,0.759,2016-03-15 21:27:18.51,0.244,-0.793,0.305
77,2016-03-15 21:27:17.72,-0.679,-0.146,0.763,2016-03-15 21:27:18.51,0.61,0.488,0.366
78,2016-03-15 21:27:17.72,-0.68,-0.147,0.761,2016-03-15 21:27:18.51,0.244,2.622,0.366
79,2016-03-15 21:27:17.73,-0.683,-0.146,0.761,2016-03-15 21:27:18.51,-0.244,3.659,0.366
80,2016-03-15 21:27:17.73,-0.683,-0.147,0.756,2016-03-15 21:27:18.51,0.0,2.866,0.488
81,2016-03-15 21:27:17.73,-0.684,-0.145,0.761,2016-03-15 21:27:18.51,-0.244,2.134,0.549
82,2016-03-15 21:27:17.73,-0.687,-0.146,0.758,2016-03-15 21:27:18.51,-0.305,1.768,0.488
83,2016-03-15 21:27:17.73,-0.676,-0.146,0.747,2016-03-15 21:27:18.51,-0.244,1.89,0.488
84,2016-03-15 21:27:17.73,-0.688,-0.147,0.759,2016-03-15 21:27:18.51,0.061,1.341,0.549
85,2016-03-15 21:27:17.73,-0.683,-0.146,0.751,2016-03-15 21:27:18.51,0.183,0.915,0.488
86,2016-03-15 21:27:17.73,-0.683,-0.149,0.755,2016-03-15 21:27:18.51,0.366,-1.463,0.793
87,2016-03-15 21:27:17.73,-0.688,-0.145,0.754,2016-03-15 21:27:18.51,0.61,-2.561,0.244
88,2016-03-15 21:27:17.73,-0.692,-0.145,0.752,2016-03-15 21:27:18.51,-1.037,2.195,0.793
89,2016-03-15 21:27:17.73,-0.691,-0.146,0.753,2016-03-15 21:27:18.51,-0.366,3.537,1.098
90,2016-03-15 21:27:17.73,-0.691,-0.147,0.753,2016-03-15 21:27:18.51,-0.305,3.354,0.976
91,2016-03-15 21:27:17.73,-0.69,-0.147,0.75,2016-03-15 21:27:18.52,-0.305,2.378,0.732
92,2016-03-15 21:27:17.73,-0.692,-0.147,0.749,2016-03-15 21:27:18.52,-0.305,2.195,0.793
93,2016-03-15 21:27:17.73,-0.69,-0.146,0.758,2016-03-15 21:27:18.52,-0.183,1.341,0.61
94,2016-03-15 21:27:17.73,-0.679,-0.151,0.753,2016-03-15 21:27:18.52,-0.305,2.012,0.488
95,2016-03-15 21:27:17.73,-0.665,-0.142,0.761,2016-03-15 21:27:18.52,-0.488,2.439,0.488
96,2016-03-15 21:27:17.73,-0.674,-0.145,0.749,2016-03-15 21:27:18.52,-0.305,2.256,0.549
97,2016-03-15 21:27:17.73,-0.691,-0.157,0.779,2016-03-15 21:27:18.52,0.122,1.159,0.61
98,2016-03-15 21:27:17.73,-0.699,-0.15,0.79,2016-03-15 21:27:18.52,1.707,-1.402,0.488
99,2016-03-15 21:27:17.73,-0.728,-0.165,0.721,2016-03-15 21:27:18.52,-2.012,11.707,-0.61
100,2016-03-15 21:27:17.73,-0.739,-0.163,0.7,2016-03-15 21:27:18.52,0.244,13.171,-1.585
101,2016-03-15 21:27:17.73,-0.754,-0.163,0.679,2016-03-15 21:27:18.52,-0.061,17.561,-2.012
102,2016-03-15 21:27:17.73,-0.763,-0.153,0.637,2016-03-15 21:27:18.52,-1.768,19.756,-0.915
103,2016-03-15 21:27:17.73,-0.802,-0.14,0.63,2016-03-15 21:27:18.52,-1.159,19.634,-0.061
104,2016-03-15 21:27:17.73,-0.828,-0.136,0.617,2016-03-15 21:27:18.52,0.793,34.573,0.305
105,2016-03-15 21:27:17.73,-0.866,-0.138,0.573,2016-03-15 21:27:18.52,2.378,35.732,0.122
106,2016-03-15 21:27:17.73,-0.872,-0.147,0.547,2016-03-15 21:27:18.52,4.085,34.939,-2.805
107,2016-03-15 21:27:17.73,-0.876,-0.155,0.509,2016-03-15 21:27:18.52,1.463,40.305,-4.878
108,2016-03-15 21:27:17.73,-0.879,-0.163,0.488,2016-03-15 21:27:18.52,-1.22,42.317,-5.427
109,2016-03-15 21:27:17.73,-0.874,-0.196,0.462,2016-03-15 21:27:18.52,-1.768,42.988,-3.78
110,2016-03-15 21:27:17.73,-0.893,-0.175,0.405,2016-03-15 21:27:18.52,-2.805,43.841,-3.049
111,2016-03-15 21:27:17.73,-0.902,-0.179,0.384,2016-03-15 21:27:18.52,-2.866,43.72,-3.232
112,2016-03-15 21:27:17.73,-0.931,-0.192,0.353,2016-03-15 21:27:18.52,-3.537,42.988,-4.939
113,2016-03-15 21:27:17.73,-0.921,-0.208,0.311,2016-03-15 21:27:18.52,-4.512,45.915,-5.0
114,2016-03-15 21:27:17.73,-0.954,-0.219,0.286,2016-03-15 21:27:18.52,-6.829,51.829,-10.305
115,2016-03-15 21:27:17.73,-0.955,-0.2,0.262,2016-03-15 21:27:18.52,-12.134,56.646,-9.085
116,2016-03-15 21:27:17.73,-0.957,-0.24,0.179,2016-03-15 21:27:18.52,-17.683,59.451,-7.195
117,2016-03-15 21:27:17.73,-0.975,-0.235,0.119,2016-03-15 21:27:18.52,-21.28,60.61,-5.549
118,2016-03-15 21:27:17.73,-0.943,-0.257,0.028,2016-03-15 21:27:18.52,-20.427,68.11,-4.512
119,2016-03-15 21:27:17.73,-0.968,-0.383,0.009,2016-03-15 21:27:18.52,-18.963,75.183,-2.927
120,2016-03-15 21:27:17.73,-1.129,-0.319,-0.177,2016-03-15 21:27:18.52,-19.39,73.049,1.22
121,2016-03-15 21:27:17.73,-1.149,-0.144,-0.252,2016-03-15 21:27:18.52,-20.244,70.122,5.366
122,2016-03-15 21:27:17.73,-1.004,-0.013,-0.371,2016-03-15 21:27:18.52,-20.366,82.012,10.671
123,2016-03-15 21:27:17.73,-0.916,-0.086,-0.536,2016-03-15 21:27:18.52,-25.427,108.659,8.415
124,2016-03-15 21:27:17.74,-0.936,-0.117,-0.455,2016-03-15 21:27:18.52,-26.707,103.963,7.683
125,2016-03-15 21:27:17.74,-0.947,-0.08,-0.571,2016-03-15 21:27:18.52,-33.415,97.378,15.183
126,2016-03-15 21:27:17.74,-0.867,-0.068,-0.678,2016-03-15 21:27:18.52,-53.354,93.72,13.537
127,2016-03-15 21:27:17.74,-0.894,0.035,-0.656,2016-03-15 21:27:18.52,-67.866,81.159,21.585
128,2016-03-15 21:27:17.74,-0.935,0.034,-0.73,2016-03-15 21:27:18.52,-94.817,84.268,16.159
129,2016-03-15 21:27:17.74,-0.85,-0.083,-0.771,2016-03-15 21:27:18.52,-77.439,70.183,9.329
130,2016-03-15 21:27:17.74,-0.783,-0.108,-0.652,2016-03-15 21:27:18.52,-41.037,61.463,9.329
131,2016-03-15 21:27:17.74,-0.871,-0.005,-0.586,2016-03-15 21:27:18.52,-39.268,64.207,-3.598
132,2016-03-15 21:27:17.74,-0.739,-0.001,-0.649,2016-03-15 21:27:18.52,-53.232,44.39,-24.329
133,2016-03-15 21:27:17.74,-0.793,0.0,-0.677,2016-03-15 21:27:18.52,-51.707,26.28,-37.134
134,2016-03-15 21:27:17.74,-0.747,-0.114,-0.713,2016-03-15 21:27:18.52,-39.39,15.061,-45.305
135,2016-03-15 21:27:17.74,-0.691,-0.13,-0.76,2016-03-15 21:27:18.52,-39.39,30.305,-60.183
136,2016-03-15 21:27:17.74,-0.709,-0.204,-0.696,2016-03-15 21:27:18.52,-28.171,29.451,-76.22
137,2016-03-15 21:27:17.74,-0.739,-0.099,-0.775,2016-03-15 21:27:18.52,-31.098,28.11,-80.732
138,2016-03-15 21:27:17.74,-0.688,-0.283,-0.772,2016-03-15 21:27:18.53,-39.451,14.939,-73.659
139,2016-03-15 21:27:17.74,-0.643,-0.307,-0.658,2016-03-15 21:27:18.53,-31.037,13.11,-72.134
140,2016-03-15 21:27:17.74,-0.726,-0.207,-0.719,2016-03-15 21:27:18.53,-19.573,14.146,-69.634
141,2016-03-15 21:27:17.74,-0.681,-0.246,-0.675,2016-03-15 21:27:18.53,-30.915,11.951,-61.829
142,2016-03-15 21:27:17.74,-0.658,-0.312,-0.642,2016-03-15 21:27:18.53,15.0,5.793,-55.61
143,2016-03-15 21:27:17.74,-0.793,-0.285,-0.821,2016-03-15 21:27:18.53,-14.695,-5.122,-56.646
144,2016-03-15 21:27:17.74,-0.836,-0.397,-0.832,2016-03-15 21:27:18.53,-8.171,1.89,-53.659
145,2016-03-15 21:27:17.74,-0.789,-0.466,-0.765,2016-03-15 21:27:18.53,7.622,0.732,-44.573
146,2016-03-15 21:27:17.74,-0.805,-0.472,-0.733,2016-03-15 21:27:18.53,21.28,-19.39,-42.805
147,2016-03-15 21:27:17.74,-0.84,-0.457,-0.633,2016-03-15 21:27:18.53,19.817,-10.793,-34.878
148,2016-03-15 21:27:17.74,-0.792,-0.457,-0.515,2016-03-15 21:27:18.53,22.988,-15.61,-20.61
149,2016-03-15 21:27:17.74,-0.741,-0.419,-0.459,2016-03-15 21:27:18.53,13.72,-32.317,-7.439
150,2016-03-15 21:27:17.74,-0.757,-0.407,-0.5,2016-03-15 21:27:18.53,-13.171,-35.61,0.427
151,2016-03-15 21:27:17.74,-0.783,-0.406,-0.451,2016-03-15 21:27:18.53,-5.122,-45.732,3.841
152,2016-03-15 21:27:17.74,-0.81,-0.353,-0.33,2016-03-15 21:27:18.53,20.244,-63.11,8.537
153,2016-03-15 21:27:17.74,-0.871,-0.385,-0.341,2016-03-15 21:27:18.53,38.232,-73.415,12.439
154,2016-03-15 21:27:17.74,-0.832,-0.34,-0.246,2016-03-15 21:27:18.53,40.976,-76.402,19.939
155,2016-03-15 21:27:17.74,-0.764,-0.308,-0.186,2016-03-15 21:27:18.53,52.927,-79.634,22.195
156,2016-03-15 21:27:17.74,-0.724,-0.259,-0.138,2016-03-15 21:27:18.53,67.195,-80.61,23.902
157,2016-03-15 21:27:17.74,-0.736,-0.244,-0.117,2016-03-15 21:27:18.53,66.463,-83.293,30.854
158,2016-03-15 21:27:17.74,-0.805,-0.186,-0.042,2016-03-15 21:27:18.53,71.159,-81.829,31.28
159,2016-03-15 21:27:17.74,-0.933,-0.185,0.055,2016-03-15 21:27:18.53,68.354,-80.183,32.805
160,2016-03-15 21:27:17.74,-0.976,-0.138,-0.0,2016-03-15 21:27:18.53,60.61,-70.793,35.854
161,2016-03-15 21:27:17.74,-0.908,-0.107,-0.005,2016-03-15 21:27:18.53,58.049,-57.805,36.951
162,2016-03-15 21:27:17.74,-0.926,-0.073,0.033,2016-03-15 21:27:18.53,53.72,-43.963,37.195
163,2016-03-15 21:27:17.74,-1.0,-0.089,0.133,2016-03-15 21:27:18.53,39.878,-32.683,40.305
164,2016-03-15 21:27:17.74,-0.993,-0.157,0.194,2016-03-15 21:27:18.53,18.293,-30.305,41.585
165,2016-03-15 21:27:17.74,-0.973,-0.198,0.196,2016-03-15 21:27:18.53,-7.622,-17.073,41.341
166,2016-03-15 21:27:17.74,-1.018,-0.122,0.211,2016-03-15 21:27:18.53,-35.061,-13.049,37.744
167,2016-03-15 21:27:17.74,-0.955,-0.091,0.254,2016-03-15 21:27:18.53,-55.0,-19.451,34.695
168,2016-03-15 21:27:17.74,-0.928,-0.105,0.23,2016-03-15 21:27:18.53,-57.134,-24.512,30.976
169,2016-03-15 21:27:17.75,-0.895,-0.083,0.19,2016-03-15 21:27:18.53,-43.78,-20.61,21.159
170,2016-03-15 21:27:17.75,-0.941,-0.083,0.193,2016-03-15 21:27:18.53,-36.402,-13.963,8.841
171,2016-03-15 21:27:17.75,-1.011,-0.132,0.27,2016-03-15 21:27:18.53,-39.207,-5.793,0.122
172,2016-03-15 21:27:17.75,-1.072,-0.163,0.332,2016-03-15 21:27:18.53,-37.866,-5.366,-7.683
173,2016-03-15 21:27:17.75,-1.235,-0.127,0.298,2016-03-15 21:27:18.53,-30.61,-7.378,-15.183
174,2016-03-15 21:27:17.75,-1.21,-0.077,0.261,2016-03-15 21:27:18.53,-19.878,-5.305,-22.805
175,2016-03-15 21:27:17.75,-1.132,-0.089,0.246,2016-03-15 21:27:18.53,-9.207,-6.341,-29.512
176,2016-03-15 21:27:17.75,-0.961,-0.177,0.183,2016-03-15 21:27:18.53,0.732,-16.463,-39.024
177,2016-03-15 21:27:17.75,-0.858,-0.226,0.062,2016-03-15 21:27:18.53,5.671,-30.183,-43.659
178,2016-03-15 21:27:17.75,-0.8,-0.362,0.007,2016-03-15 21:27:18.53,-27.561,-33.537,-34.451
179,2016-03-15 21:27:17.75,-0.849,-0.462,0.046,2016-03-15 21:27:18.53,-58.78,-31.829,-23.841
180,2016-03-15 21:27:17.75,-0.967,-0.39,0.088,2016-03-15 21:27:18.53,-48.841,-34.146,-18.598
181,2016-03-15 21:27:17.75,-0.994,-0.344,0.138,2016-03-15 21:27:18.53,-43.902,-32.012,-10.793
182,2016-03-15 21:27:17.75,-0.93,-0.392,0.164,2016-03-15 21:27:18.53,-46.646,-26.951,-2.622
183,2016-03-15 21:27:17.75,-0.902,-0.452,0.161,2016-03-15 21:27:18.54,-50.854,-19.817,0.732
184,2016-03-15 21:27:17.75,-0.901,-0.47,0.178,2016-03-15 21:27:18.54,-69.39,-26.89,6.829
185,2016-03-15 21:27:17.75,-0.891,-0.432,0.163,2016-03-15 21:27:18.54,-85.61,-42.134,17.927
186,2016-03-15 21:27:17.75,-0.881,-0.407,0.178,2016-03-15 21:27:18.54,-94.573,-42.5,27.256
187,2016-03-15 21:27:17.75,-0.888,-0.407,0.231,2016-03-15 21:27:18.54,-91.402,-34.695,27.805
188,2016-03-15 21:27:17.75,-0.905,-0.402,0.224,2016-03-15 21:27:18.54,-83.476,-30.366,29.146
189,2016-03-15 21:27:17.75,-0.891,-0.403,0.248,2016-03-15 21:27:18.54,-80.488,-35.305,32.561
190,2016-03-15 21:27:17.75,-0.874,-0.413,0.288,2016-03-15 21:27:18.54,-72.683,-29.634,33.78
191,2016-03-15 21:27:17.75,-0.884,-0.382,0.306,2016-03-15 21:27:18.54,-68.78,-19.939,35.488
192,2016-03-15 21:27:17.75,-0.903,-0.344,0.329,2016-03-15 21:27:18.54,-63.11,-15.488,36.89
193,2016-03-15 21:27:17.75,-0.927,-0.343,0.342,2016-03-15 21:27:18.54,-56.098,-16.341,38.11
194,2016-03-15 21:27:17.75,-0.957,-0.348,0.355,2016-03-15 21:27:18.54,-46.28,-10.183,36.159
195,2016-03-15 21:27:17.75,-0.968,-0.353,0.4,2016-03-15 21:27:18.54,-39.512,-5.976,33.841
196,2016-03-15 21:27:17.75,-1.162,-0.328,0.38,2016-03-15 21:27:18.54,-40.854,-9.329,35.671
197,2016-03-15 21:27:17.75,-1.312,-0.252,0.334,2016-03-15 21:27:18.54,-40.976,-11.707,38.171
198,2016-03-15 21:27:17.75,-1.018,-0.121,0.209,2016-03-15 21:27:18.54,-33.415,-13.11,38.963
199,2016-03-15 21:27:17.75,-0.793,-0.004,0.064,2016-03-15 21:27:18.54,-29.817,-16.402,40.793
200,2016-03-15 21:27:17.75,-0.879,0.041,0.017,2016-03-15 21:27:18.54,-20.61,-25.488,40.244
201,2016-03-15 21:27:17.75,-0.963,0.071,0.102,2016-03-15 21:27:18.54,-7.134,-43.354,40.183
202,2016-03-15 21:27:17.75,-1.051,0.079,0.202,2016-03-15 21:27:18.54,28.232,-11.28,25.488
203,2016-03-15 21:27:17.75,-1.105,-0.035,0.302,2016-03-15 21:27:18.54,46.768,14.939,10.915
204,2016-03-15 21:27:17.75,-0.997,-0.046,0.287,2016-03-15 21:27:18.54,18.659,-0.427,20.122
205,2016-03-15 21:27:17.76,-0.901,-0.038,0.251,2016-03-15 21:27:18.54,4.634,2.195,22.5
206,2016-03-15 21:27:17.76,-0.882,-0.038,0.259,2016-03-15 21:27:18.54,12.988,5.488,15.61
207,2016-03-15 21:27:17.76,-0.926,-0.028,0.254,2016-03-15 21:27:18.54,9.573,-3.537,6.768
208,2016-03-15 21:27:17.76,-0.948,-0.039,0.315,2016-03-15 21:27:18.54,2.256,-13.841,-1.646
209,2016-03-15 21:27:17.76,-0.918,-0.081,0.353,2016-03-15 21:27:18.54,-3.659,-2.378,-3.354
210,2016-03-15 21:27:17.76,-0.933,-0.064,0.364,2016-03-15 21:27:18.54,-9.268,16.89,-3.354
211,2016-03-15 21:27:17.76,-0.952,-0.049,0.391,2016-03-15 21:27:18.54,-7.012,7.988,-8.354
212,2016-03-15 21:27:17.76,-0.968,-0.082,0.406,2016-03-15 21:27:18.54,0.183,0.244,-19.512
213,2016-03-15 21:27:17.76,-0.985,-0.103,0.438,2016-03-15 21:27:18.54,7.073,-6.037,-31.585
214,2016-03-15 21:27:17.76,-1.0,-0.138,0.489,2016-03-15 21:27:18.54,14.329,-5.0,-39.146
215,2016-03-15 21:27:17.76,-1.044,-0.167,0.539,2016-03-15 21:27:18.54,24.024,1.098,-41.768
216,2016-03-15 21:27:17.76,-1.236,-0.205,0.454,2016-03-15 21:27:18.54,33.293,1.098,-39.817
217,2016-03-15 21:27:17.76,-1.155,-0.177,0.257,2016-03-15 21:27:18.54,34.451,-5.0,-38.537
218,2016-03-15 21:27:17.76,-0.907,-0.187,0.174,2016-03-15 21:27:18.54,37.439,-5.488,-39.512
219,2016-03-15 21:27:17.76,-0.714,-0.188,0.148,2016-03-15 21:27:18.54,43.963,-6.829,-42.561
220,2016-03-15 21:27:17.76,-0.762,-0.347,0.106,2016-03-15 21:27:18.54,58.232,-17.622,-41.28
221,2016-03-15 21:27:17.76,-1.006,-0.389,0.19,2016-03-15 21:27:18.54,50.976,-19.268,-30.488
222,2016-03-15 21:27:17.76,-1.044,-0.3,0.305,2016-03-15 21:27:18.54,16.829,12.439,-19.146
223,2016-03-15 21:27:17.76,-0.977,-0.257,0.276,2016-03-15 21:27:18.54,9.939,29.512,-11.646
224,2016-03-15 21:27:17.76,-0.839,-0.271,0.293,2016-03-15 21:27:18.54,37.805,33.659,-13.415
225,2016-03-15 21:27:17.76,-0.815,-0.308,0.269,2016-03-15 21:27:18.54,49.756,9.878,-17.195
226,2016-03-15 21:27:17.76,-0.834,-0.379,0.305,2016-03-15 21:27:18.54,24.695,-6.22,-5.061
227,2016-03-15 21:27:17.76,-0.871,-0.382,0.328,2016-03-15 21:27:18.54,4.146,2.317,3.659
228,2016-03-15 21:27:17.76,-0.914,-0.28,0.337,2016-03-15 21:27:18.54,13.049,29.756,-1.402
229,2016-03-15 21:27:17.76,-0.942,-0.199,0.339,2016-03-15 21:27:18.54,16.463,36.28,-3.963
230,2016-03-15 21:27:17.76,-0.965,-0.187,0.347,2016-03-15 21:27:18.55,18.171,27.988,3.963
231,2016-03-15 21:27:17.76,-0.964,-0.277,0.405,2016-03-15 21:27:18.55,21.89,23.049,15.488
232,2016-03-15 21:27:17.76,-0.99,-0.298,0.47,2016-03-15 21:27:18.55,18.293,9.512,27.317
233,2016-03-15 21:27:17.76,-1.237,-0.21,0.269,2016-03-15 21:27:18.55,4.39,1.463,27.744
234,2016-03-15 21:27:17.76,-1.005,-0.166,0.159,2016-03-15 21:27:18.55,-13.537,-4.39,29.329
235,2016-03-15 21:27:17.76,-0.772,-0.102,0.099,2016-03-15 21:27:18.55,-26.646,-5.488,25.61
236,2016-03-15 21:27:17.76,-0.872,0.014,0.008,2016-03-15 21:27:18.55,-33.659,-6.646,21.28
237,2016-03-15 21:27:17.76,-1.073,-0.031,0.13,2016-03-15 21:27:18.55,-23.415,-23.171,10.427
238,2016-03-15 21:27:17.76,-1.004,-0.149,0.234,2016-03-15 21:27:18.55,-6.341,4.634,-3.902
239,2016-03-15 21:27:17.76,-0.897,-0.147,0.254,2016-03-15 21:27:18.55,0.793,9.085,-13.659
240,2016-03-15 21:27:17.76,-0.834,-0.164,0.219,2016-03-15 21:27:18.55,-25.305,6.585,-10.488
241,2016-03-15 21:27:17.76,-0.867,-0.183,0.266,2016-03-15 21:27:18.55,-36.829,7.195,-5.488
242,2016-03-15 21:27:17.76,-0.904,-0.184,0.322,2016-03-15 21:27:18.55,-9.024,-8.963,-16.951
243,2016-03-15 21:27:17.76,-0.984,-0.213,0.344,2016-03-15 21:27:18.55,-25.549,-1.951,-11.463
244,2016-03-15 21:27:17.76,-1.001,-0.223,0.376,2016-03-15 21:27:18.55,-27.195,5.366,-12.561
245,2016-03-15 21:27:17.76,-1.101,-0.269,0.37,2016-03-15 21:27:18.55,-21.585,8.476,-14.512
246,2016-03-15 21:27:17.76,-1.254,-0.287,0.28,2016-03-15 21:27:18.55,-15.976,4.634,-18.11
247,2016-03-15 21:27:17.76,-1.215,-0.265,0.188,2016-03-15 21:27:18.55,-6.341,-18.293,-28.232
248,2016-03-15 21:27:17.76,-0.824,-0.182,0.073,2016-03-15 21:27:18.55,-2.5,-6.89,-28.659
249,2016-03-15 21:27:17.76,-0.908,-0.286,0.038,2016-03-15 21:27:18.55,2.256,-6.098,-23.476
250,2016-03-15 21:27:17.76,-1.037,-0.23,0.242,2016-03-15 21:27:18.55,-2.927,-22.683,-14.756
251,2016-03-15 21:27:17.77,-0.945,-0.288,0.253,2016-03-15 21:27:18.55,-16.341,-26.524,0.549
252,2016-03-15 21:27:17.77,-0.88,-0.374,0.29,2016-03-15 21:27:18.55,-16.768,-16.037,18.293
253,2016-03-15 21:27:17.77,-0.853,-0.26,0.292,2016-03-15 21:27:18.55,-12.927,-10.976,27.012
254,2016-03-15 21:27:17.77,-0.861,-0.217,0.299,2016-03-15 21:27:18.55,-34.695,-41.585,36.098
255,2016-03-15 21:27:17.77,-0.859,-0.194,0.421,2016-03-15 21:27:18.55,-52.866,-32.866,45.671
256,2016-03-15 21:27:17.77,-0.84,-0.283,0.378,2016-03-15 21:27:18.55,-36.707,-13.171,36.098
257,2016-03-15 21:27:17.77,-0.837,-0.375,0.357,2016-03-15 21:27:18.55,-28.659,-17.256,29.268
258,2016-03-15 21:27:17.77,-0.833,-0.409,0.35,2016-03-15 21:27:18.55,-39.329,-28.963,39.207
259,2016-03-15 21:27:17.77,-0.797,-0.429,0.34,2016-03-15 21:27:18.55,-51.463,-22.256,44.817
260,2016-03-15 21:27:17.77,-0.872,-0.423,0.339,2016-03-15 21:27:18.55,-47.561,3.598,35.671
261,2016-03-15 21:27:17.77,-0.981,-0.359,0.441,2016-03-15 21:27:18.55,-30.61,25.183,19.817
262,2016-03-15 21:27:17.77,-0.998,-0.297,0.471,2016-03-15 21:27:18.55,-30.244,32.805,8.841
263,2016-03-15 21:27:17.77,-1.13,-0.33,0.521,2016-03-15 21:27:18.55,-21.28,12.256,7.866
264,2016-03-15 21:27:17.77,-1.365,-0.155,0.363,2016-03-15 21:27:18.55,2.561,-9.512,10.427
265,2016-03-15 21:27:17.77,-1.241,0.014,0.005,2016-03-15 21:27:18.55,12.561,-12.683,14.634
266,2016-03-15 21:27:17.77,-0.785,-0.03,0.108,2016-03-15 21:27:18.55,5.915,-7.256,12.622
267,2016-03-15 21:27:17.77,-0.912,0.096,0.066,2016-03-15 21:27:18.55,15.427,-4.39,0.549
268,2016-03-15 21:27:17.77,-0.979,0.171,0.039,2016-03-15 21:27:18.55,7.744,12.317,-6.707
269,2016-03-15 21:27:17.77,-1.047,0.101,0.138,2016-03-15 21:27:18.55,6.22,37.012,4.268
270,2016-03-15 21:27:17.77,-1.014,0.027,0.142,2016-03-15 21:27:18.55,41.585,51.463,-5.61
271,2016-03-15 21:27:17.77,-0.969,-0.001,0.173,2016-03-15 21:27:18.55,-0.305,38.11,3.72
272,2016-03-15 21:27:17.77,-0.952,-0.052,0.186,2016-03-15 21:27:18.55,-28.476,35.61,18.841
273,2016-03-15 21:27:17.77,-0.941,-0.088,0.157,2016-03-15 21:27:18.55,-14.39,28.963,24.268
274,2016-03-15 21:27:17.77,-0.95,-0.084,0.234,2016-03-15 21:27:18.55,-9.451,1.829,22.988
275,2016-03-15 21:27:17.77,-0.968,-0.072,0.269,2016-03-15 21:27:18.55,-11.951,2.683,15.366
276,2016-03-15 21:27:17.77,-0.936,-0.069,0.193,2016-03-15 21:27:18.56,-6.585,7.439,4.634
277,2016-03-15 21:27:17.77,-0.943,-0.158,0.221,2016-03-15 21:27:18.56,-0.671,-0.488,-3.415
278,2016-03-15 21:27:17.77,-1.002,-0.19,0.307,2016-03-15 21:27:18.56,5.915,4.024,-13.537
279,2016-03-15 21:27:17.77,-1.012,-0.044,0.327,2016-03-15 21:27:18.56,16.402,4.695,-20.915
280,2016-03-15 21:27:17.77,-1.287,-0.067,0.242,2016-03-15 21:27:18.56,27.744,-1.098,-23.598
281,2016-03-15 21:27:17.77,-1.501,-0.035,0.102,2016-03-15 21:27:18.56,36.829,1.159,-28.659
282,2016-03-15 21:27:17.77,-1.1,0.015,0.169,2016-03-15 21:27:18.56,58.232,3.598,-39.878
283,2016-03-15 21:27:17.77,-0.873,-0.086,0.031,2016-03-15 21:27:18.56,77.927,-2.805,-47.195
284,2016-03-15 21:27:17.77,-0.758,-0.27,-0.01,2016-03-15 21:27:18.56,82.866,-14.695,-39.512
285,2016-03-15 21:27:17.77,-0.874,-0.287,0.008,2016-03-15 21:27:18.56,70.183,-15.915,-19.756
286,2016-03-15 21:27:17.77,-1.037,-0.167,0.096,2016-03-15 21:27:18.56,34.024,30.915,-11.098
287,2016-03-15 21:27:17.77,-1.031,-0.139,0.077,2016-03-15 21:27:18.56,28.049,28.171,-3.232
288,2016-03-15 21:27:17.77,-1.013,-0.191,0.054,2016-03-15 21:27:18.56,37.927,42.195,-3.72
289,2016-03-15 21:27:17.78,-1.032,-0.229,0.082,2016-03-15 21:27:18.56,9.878,30.671,2.622
290,2016-03-15 21:27:17.78,-1.007,-0.236,0.087,2016-03-15 21:27:18.56,-41.098,3.537,7.927
291,2016-03-15 21:27:17.78,-0.936,-0.248,0.05,2016-03-15 21:27:18.56,-73.963,-4.024,6.159
292,2016-03-15 21:27:17.78,-0.943,-0.261,0.042,2016-03-15 21:27:18.56,-78.415,-1.037,-0.915
293,2016-03-15 21:27:17.78,-0.968,-0.275,0.07,2016-03-15 21:27:18.56,-87.744,-12.622,-1.768
294,2016-03-15 21:27:17.78,-1.028,-0.289,0.109,2016-03-15 21:27:18.56,-97.683,-15.244,-2.744
295,2016-03-15 21:27:17.78,-1.005,-0.249,0.162,2016-03-15 21:27:18.56,-94.695,-12.317,-3.78
296,2016-03-15 21:27:17.78,-1.074,-0.209,0.168,2016-03-15 21:27:18.56,-96.037,-9.512,1.28
297,2016-03-15 21:27:17.78,-1.32,-0.16,0.023,2016-03-15 21:27:18.56,-89.024,-5.244,7.744
298,2016-03-15 21:27:17.78,-0.947,-0.235,0.057,2016-03-15 21:27:18.56,-82.5,-17.073,16.159
299,2016-03-15 21:27:17.78,-0.696,-0.159,0.086,2016-03-15 21:27:18.56,-87.5,-39.39,27.927
300,2016-03-15 21:27:17.78,-0.885,-0.084,0.132,2016-03-15 21:27:18.56,-92.561,-56.707,38.902
301,2016-03-15 21:27:17.78,-1.046,-0.213,0.301,2016-03-15 21:27:18.56,-103.78,-77.866,53.841
302,2016-03-15 21:27:17.78,-0.97,-0.041,0.3,2016-03-15 21:27:18.56,-68.049,-41.402,46.89
303,2016-03-15 21:27:17.78,-0.855,-0.044,0.26,2016-03-15 21:27:18.56,-76.829,-22.622,27.439
304,2016-03-15 21:27:17.78,-0.814,0.033,0.248,2016-03-15 21:27:18.56,-94.207,-31.524,20.915
305,2016-03-15 21:27:17.78,-0.893,0.006,0.341,2016-03-15 21:27:18.56,-25.366,-50.854,11.463
306,2016-03-15 21:27:17.78,-1.006,-0.077,0.409,2016-03-15 21:27:18.56,-32.805,-19.268,-1.159
307,2016-03-15 21:27:17.78,-0.983,-0.04,0.37,2016-03-15 21:27:18.56,-18.72,1.159,-2.866
308,2016-03-15 21:27:17.78,-0.94,-0.076,0.344,2016-03-15 21:27:18.56,2.927,6.037,-4.695
309,2016-03-15 21:27:17.78,-1.176,-0.215,0.327,2016-03-15 21:27:18.56,9.695,5.976,-6.28
310,2016-03-15 21:27:17.78,-1.021,-0.369,0.339,2016-03-15 21:27:18.56,12.866,-5.915,-23.354
311,2016-03-15 21:27:17.78,-1.081,-0.374,0.181,2016-03-15 21:27:18.56,7.134,-4.573,-28.293
312,2016-03-15 21:27:17.78,-0.98,-0.231,0.235,2016-03-15 21:27:18.56,2.256,-3.537,-26.402
313,2016-03-15 21:27:17.78,-0.851,-0.37,0.144,2016-03-15 21:27:18.56,7.317,-13.598,-21.951
314,2016-03-15 21:27:17.78,-0.903,-0.441,0.22,2016-03-15 21:27:18.56,20.915,-13.476,-22.134
315,2016-03-15 21:27:17.78,-0.861,-0.438,0.287,2016-03-15 21:27:18.56,-25.793,21.159,-18.232
316,2016-03-15 21:27:17.78,-0.875,-0.389,0.3,2016-03-15 21:27:18.56,12.317,-1.402,-8.354
317,2016-03-15 21:27:17.78,-0.879,-0.319,0.269,2016-03-15 21:27:18.56,32.256,12.073,-0.549
318,2016-03-15 21:27:17.78,-0.887,-0.287,0.275,2016-03-15 21:27:18.56,15.793,21.707,-2.5
319,2016-03-15 21:27:17.78,-0.886,-0.31,0.31,2016-03-15 21:27:18.56,5.671,24.817,-8.11
320,2016-03-15 21:27:17.78,-0.881,-0.311,0.315,2016-03-15 21:27:18.56,5.854,30.976,-11.402
321,2016-03-15 21:27:17.78,-0.869,-0.297,0.318,2016-03-15 21:27:18.56,12.622,15.671,-10.732
322,2016-03-15 21:27:17.78,-0.903,-0.353,0.41,2016-03-15 21:27:18.56,6.707,-0.305,-0.427
323,2016-03-15 21:27:17.78,-0.94,-0.348,0.416,2016-03-15 21:27:18.56,-3.72,-5.183,12.561
324,2016-03-15 21:27:17.78,-0.959,-0.389,0.457,2016-03-15 21:27:18.56,-4.085,-2.683,21.341
325,2016-03-15 21:27:17.78,-1.218,-0.445,0.463,2016-03-15 21:27:18.56,-4.39,-7.256,27.866
326,2016-03-15 21:27:17.78,-1.439,-0.361,0.311,2016-03-15 21:27:18.56,-10.488,-14.268,36.402
327,2016-03-15 21:27:17.78,-0.845,-0.288,0.207,2016-03-15 21:27:18.57,-11.951,-16.341,35.915
328,2016-03-15 21:27:17.79,-0.617,-0.161,0.031,2016-03-15 21:27:18.57,-9.085,-12.317,32.866
329,2016-03-15 21:27:17.79,-0.91,0.103,-0.071,2016-03-15 21:27:18.57,3.049,-17.805,24.451
330,2016-03-15 21:27:17.79,-1.137,0.014,0.148,2016-03-15 21:27:18.57,7.866,-42.622,13.476
331,2016-03-15 21:27:17.79,-1.101,-0.188,0.196,2016-03-15 21:27:18.57,38.354,18.841,0.488
332,2016-03-15 21:27:17.79,-1.012,-0.119,0.107,2016-03-15 21:27:18.57,38.78,41.22,-7.683
333,2016-03-15 21:27:17.79,-0.938,-0.046,0.123,2016-03-15 21:27:18.57,-2.5,44.451,-1.037
334,2016-03-15 21:27:17.79,-0.942,-0.029,0.138,2016-03-15 21:27:18.57,22.5,53.902,3.11
335,2016-03-15 21:27:17.79,-0.987,-0.022,0.169,2016-03-15 21:27:18.57,60.671,27.439,-3.659
336,2016-03-15 21:27:17.79,-1.015,-0.068,0.226,2016-03-15 21:27:18.57,38.841,7.317,-12.622
337,2016-03-15 21:27:17.79,-1.017,-0.126,0.243,2016-03-15 21:27:18.57,16.768,17.073,-9.512
338,2016-03-15 21:27:17.79,-0.98,-0.157,0.269,2016-03-15 21:27:18.57,6.22,20.0,-10.122
339,2016-03-15 21:27:17.79,-0.949,-0.166,0.286,2016-03-15 21:27:18.57,1.402,11.89,-14.634
340,2016-03-15 21:27:17.79,-1.023,-0.115,0.256,2016-03-15 21:27:18.57,-4.451,-1.463,-17.439
341,2016-03-15 21:27:17.79,-1.133,-0.402,0.113,2016-03-15 21:27:18.57,-14.512,-14.085,-17.683
342,2016-03-15 21:27:17.79,-0.918,-0.317,0.104,2016-03-15 21:27:18.57,-19.329,-17.622,-18.72
343,2016-03-15 21:27:17.79,-0.912,-0.303,0.054,2016-03-15 21:27:18.57,-109.756,-20.061,19.146
344,2016-03-15 21:27:17.79,-0.944,-0.347,0.071,2016-03-15 21:27:18.57,-123.171,-17.134,31.463
345,2016-03-15 21:27:17.79,-0.995,-0.353,0.063,2016-03-15 21:27:18.57,-126.707,-28.354,38.11
346,2016-03-15 21:27:17.79,-0.996,-0.419,0.056,2016-03-15 21:27:18.57,-101.463,-33.598,38.171
347,2016-03-15 21:27:17.79,-0.987,-0.401,0.048,2016-03-15 21:27:18.57,-109.817,-33.11,45.671
348,2016-03-15 21:27:17.79,-0.947,-0.322,0.073,2016-03-15 21:27:18.57,-96.585,-26.22,45.732
349,2016-03-15 21:27:17.79,-0.984,-0.288,0.126,2016-03-15 21:27:18.57,-76.89,-19.024,40.427
350,2016-03-15 21:27:17.79,-0.993,-0.256,0.128,2016-03-15 21:27:18.57,-68.232,-13.72,39.817
351,2016-03-15 21:27:17.79,-1.004,-0.14,0.11,2016-03-15 21:27:18.57,-60.061,-10.732,39.207
352,2016-03-15 21:27:17.79,-1.136,-0.037,0.151,2016-03-15 21:27:18.57,-59.451,3.476,36.28
353,2016-03-15 21:27:17.79,-1.072,-0.086,0.186,2016-03-15 21:27:18.57,-61.463,-3.232,37.561
354,2016-03-15 21:27:17.79,-0.94,0.064,0.22,2016-03-15 21:27:18.57,-58.902,-7.439,33.78
355,2016-03-15 21:27:17.79,-1.019,0.075,0.208,2016-03-15 21:27:18.57,-50.0,-7.622,24.817
356,2016-03-15 21:27:17.79,-1.033,0.048,0.226,2016-03-15 21:27:18.57,-40.061,-9.024,17.256
357,2016-03-15 21:27:17.79,-0.995,-0.044,0.255,2016-03-15 21:27:18.57,-28.902,6.524,16.585
358,2016-03-15 21:27:17.79,-0.981,-0.062,0.238,2016-03-15 21:27:18.57,-18.293,12.134,10.549
359,2016-03-15 21:27:17.79,-0.985,-0.045,0.172,2016-03-15 21:27:18.57,-11.341,7.683,4.939
360,2016-03-15 21:27:17.79,-1.007,-0.044,0.208,2016-03-15 21:27:18.57,-5.427,6.402,0.305
361,2016-03-15 21:27:17.79,-0.986,-0.003,0.185,2016-03-15 21:27:18.57,-5.671,5.732,-3.293
362,2016-03-15 21:27:17.79,-0.995,0.058,0.183,2016-03-15 21:27:18.57,-9.573,3.049,-7.683
363,2016-03-15 21:27:17.79,-1.013,0.08,0.176,2016-03-15 21:27:18.57,-10.61,4.207,-8.293
364,2016-03-15 21:27:17.79,-1.001,0.074,0.185,2016-03-15 21:27:18.57,-18.902,9.146,-6.28
365,2016-03-15 21:27:17.79,-0.987,0.09,0.182,2016-03-15 21:27:18.57,-33.171,8.598,-7.805
366,2016-03-15 21:27:17.79,-0.995,0.071,0.21,2016-03-15 21:27:18.57,-35.122,9.268,-11.22
367,2016-03-15 21:27:17.79,-0.998,0.065,0.202,2016-03-15 21:27:18.57,-37.073,5.366,-16.768
368,2016-03-15 21:27:17.79,-0.999,0.022,0.202,2016-03-15 21:27:18.57,-29.451,1.89,-25.488
369,2016-03-15 21:27:17.79,-0.991,0.017,0.181,2016-03-15 21:27:18.57,-16.037,3.293,-34.634
370,2016-03-15 21:27:17.79,-0.968,-0.014,0.153,2016-03-15 21:27:18.57,-11.707,-2.134,-43.476
371,2016-03-15 21:27:17.80,-0.994,-0.07,0.192,2016-03-15 21:27:18.57,-27.927,-5.61,-45.366
372,2016-03-15 21:27:17.80,-1.016,-0.058,0.246,2016-03-15 21:27:18.57,-55.0,-16.341,-38.963
373,2016-03-15 21:27:17.80,-1.074,-0.12,0.325,2016-03-15 21:27:18.58,-65.305,-2.805,-30.427
374,2016-03-15 21:27:17.80,-1.09,-0.262,0.185,2016-03-15 21:27:18.58,-40.0,-2.317,-29.817
375,2016-03-15 21:27:17.80,-0.968,-0.237,0.067,2016-03-15 21:27:18.58,-15.732,-15.244,-20.671
376,2016-03-15 21:27:17.80,-1.064,-0.219,-0.014,2016-03-15 21:27:18.58,-9.695,-23.354,-16.341
377,2016-03-15 21:27:17.80,-1.119,-0.21,0.055,2016-03-15 21:27:18.58,5.915,-14.451,-10.366
378,2016-03-15 21:27:17.80,-1.004,-0.228,0.034,2016-03-15 21:27:18.58,-23.598,-14.878,10.183
379,2016-03-15 21:27:17.80,-0.891,-0.264,0.052,2016-03-15 21:27:18.58,-58.598,-30.793,15.915
380,2016-03-15 21:27:17.80,-0.943,-0.487,0.108,2016-03-15 21:27:18.58,-50.671,-39.085,16.707
381,2016-03-15 21:27:17.80,-1.003,-0.446,0.101,2016-03-15 21:27:18.58,-37.134,-28.841,9.451
382,2016-03-15 21:27:17.80,-1.01,-0.311,0.08,2016-03-15 21:27:18.58,-38.11,-10.732,10.854
383,2016-03-15 21:27:17.80,-0.982,-0.256,0.092,2016-03-15 21:27:18.58,-38.293,7.195,13.598
384,2016-03-15 21:27:17.80,-0.944,-0.338,0.073,2016-03-15 21:27:18.58,-38.049,-20.488,14.451
385,2016-03-15 21:27:17.80,-0.996,-0.375,0.097,2016-03-15 21:27:18.58,-11.402,12.927,7.744
386,2016-03-15 21:27:17.80,-0.952,-0.359,0.116,2016-03-15 21:27:18.58,-4.573,20.183,6.646
387,2016-03-15 21:27:17.80,-0.893,-0.342,0.142,2016-03-15 21:27:18.58,-0.488,17.256,11.829
388,2016-03-15 21:27:17.80,-0.871,-0.312,0.18,2016-03-15 21:27:18.58,11.098,3.354,10.61
389,2016-03-15 21:27:17.80,-0.91,-0.346,0.202,2016-03-15 21:27:18.58,18.537,-4.207,6.463
390,2016-03-15 21:27:17.80,-0.926,-0.336,0.208,2016-03-15 21:27:18.58,20.183,-7.561,-1.463
391,2016-03-15 21:27:17.80,-0.957,-0.305,0.22,2016-03-15 21:27:18.58,18.415,-5.549,-2.866
392,2016-03-15 21:27:17.80,-0.985,-0.253,0.216,2016-03-15 21:27:18.58,15.854,-13.902,8.171
393,2016-03-15 21:27:17.80,-0.953,-0.183,0.262,2016-03-15 21:27:18.58,12.439,-44.512,25.305
394,2016-03-15 21:27:17.80,-1.042,-0.128,0.195,2016-03-15 21:27:18.58,25.244,28.902,3.11
395,2016-03-15 21:27:17.80,-1.132,-0.29,-0.027,2016-03-15 21:27:18.58,18.841,10.244,-5.61
396,2016-03-15 21:27:17.80,-1.077,-0.262,0.221,2016-03-15 21:27:18.58,9.756,-6.402,-2.927
397,2016-03-15 21:27:17.80,-0.939,-0.19,0.105,2016-03-15 21:27:18.58,17.073,13.232,-4.756
398,2016-03-15 21:27:17.80,-0.964,-0.189,-0.038,2016-03-15 21:27:18.58,11.341,7.134,1.585
399,2016-03-15 21:27:17.80,-1.083,-0.262,0.162,2016-03-15 21:27:18.58,14.329,-9.085,3.171
400,2016-03-15 21:27:17.80,-1.164,-0.208,0.231,2016-03-15 21:27:18.58,18.415,-8.659,5.244
401,2016-03-15 21:27:17.80,-0.981,-0.123,0.18,2016-03-15 21:27:18.58,17.134,3.049,2.317
402,2016-03-15 21:27:17.80,-0.901,-0.156,0.152,2016-03-15 21:27:18.58,15.976,2.439,-0.183
403,2016-03-15 21:27:17.80,-0.977,-0.195,0.208,2016-03-15 21:27:18.58,20.0,2.805,2.439
404,2016-03-15 21:27:17.80,-0.983,-0.163,0.159,2016-03-15 21:27:18.58,13.598,10.183,0.305
405,2016-03-15 21:27:17.80,-0.945,-0.172,0.15,2016-03-15 21:27:18.58,15.793,6.463,-7.927
406,2016-03-15 21:27:17.80,-1.043,-0.121,0.218,2016-03-15 21:27:18.58,26.646,2.195,-6.89
407,2016-03-15 21:27:17.80,-0.979,-0.097,0.15,2016-03-15 21:27:18.58,8.78,11.524,-7.622
408,2016-03-15 21:27:17.80,-0.936,-0.118,0.12,2016-03-15 21:27:18.58,-5.671,2.195,-11.463
409,2016-03-15 21:27:17.80,-1.023,-0.043,0.269,2016-03-15 21:27:18.58,-4.878,-3.232,-11.585
410,2016-03-15 21:27:17.81,-1.028,-0.085,0.196,2016-03-15 21:27:18.58,-7.073,9.329,-17.805
411,2016-03-15 21:27:17.81,-0.955,-0.091,0.178,2016-03-15 21:27:18.58,0.671,7.927,-23.293
412,2016-03-15 21:27:17.81,-0.995,-0.093,0.216,2016-03-15 21:27:18.58,-0.427,7.561,-22.012
413,2016-03-15 21:27:17.81,-1.012,-0.13,0.208,2016-03-15 21:27:18.58,-9.756,10.793,-24.146
414,2016-03-15 21:27:17.81,-1.047,-0.204,0.205,2016-03-15 21:27:18.58,-24.024,26.768,-25.244
415,2016-03-15 21:27:17.81,-0.954,-0.228,0.133,2016-03-15 21:27:18.58,-14.451,22.012,-20.305
416,2016-03-15 21:27:17.81,-0.882,-0.282,0.043,2016-03-15 21:27:18.58,-13.537,11.524,-12.012
417,2016-03-15 21:27:17.81,-0.973,-0.402,-0.004,2016-03-15 21:27:18.58,-26.524,7.378,-3.72
418,2016-03-15 21:27:17.81,-1.107,-0.396,0.004,2016-03-15 21:27:18.58,-41.707,3.537,2.683
419,2016-03-15 21:27:17.81,-1.081,-0.319,0.046,2016-03-15 21:27:18.58,-44.268,-2.073,6.22
420,2016-03-15 21:27:17.81,-0.934,-0.28,0.069,2016-03-15 21:27:18.59,-51.098,-10.732,10.976
421,2016-03-15 21:27:17.81,-0.89,-0.349,0.076,2016-03-15 21:27:18.59,-62.256,-25.854,17.073
422,2016-03-15 21:27:17.81,-0.942,-0.403,0.088,2016-03-15 21:27:18.59,-69.573,-26.037,21.89
423,2016-03-15 21:27:17.81,-0.949,-0.369,0.05,2016-03-15 21:27:18.59,-79.756,-10.0,26.341
424,2016-03-15 21:27:17.81,-0.922,-0.292,-0.023,2016-03-15 21:27:18.59,-92.073,-9.939,35.61
425,2016-03-15 21:27:17.81,-0.953,-0.232,-0.013,2016-03-15 21:27:18.59,-110.122,-4.573,45.122
426,2016-03-15 21:27:17.81,-0.99,-0.212,-0.001,2016-03-15 21:27:18.59,-127.378,-5.549,46.89
427,2016-03-15 21:27:17.81,-1.035,-0.228,0.034,2016-03-15 21:27:18.59,-128.841,-12.256,41.646
428,2016-03-15 21:27:17.81,-1.072,-0.273,0.046,2016-03-15 21:27:18.59,-118.11,-13.537,31.707
429,2016-03-15 21:27:17.81,-1.044,-0.292,0.023,2016-03-15 21:27:18.59,-100.427,-9.878,21.341
430,2016-03-15 21:27:17.81,-0.991,-0.296,0.02,2016-03-15 21:27:18.59,-94.451,-9.024,15.671
431,2016-03-15 21:27:17.81,-1.006,-0.287,0.041,2016-03-15 21:27:18.59,-89.085,-15.793,13.72
432,2016-03-15 21:27:17.81,-1.025,-0.223,0.085,2016-03-15 21:27:18.59,-92.195,-22.5,19.207
433,2016-03-15 21:27:17.81,-1.018,-0.189,0.062,2016-03-15 21:27:18.59,-107.561,-32.439,29.207
434,2016-03-15 21:27:17.81,-1.007,-0.134,0.098,2016-03-15 21:27:18.59,-122.256,-34.634,37.683
435,2016-03-15 21:27:17.81,-1.085,-0.065,0.087,2016-03-15 21:27:18.59,-115.732,-25.732,36.524
436,2016-03-15 21:27:17.81,-1.272,-0.03,-0.029,2016-03-15 21:27:18.59,-108.963,-40.549,23.537
437,2016-03-15 21:27:17.81,-1.12,-0.053,0.045,2016-03-15 21:27:18.59,-108.415,-41.463,13.598
438,2016-03-15 21:27:17.81,-0.892,-0.085,-0.02,2016-03-15 21:27:18.59,-93.293,-40.915,10.0
439,2016-03-15 21:27:17.81,-0.829,-0.015,-0.051,2016-03-15 21:27:18.59,-61.768,-28.232,-2.012
440,2016-03-15 21:27:17.81,-0.989,-0.094,0.016,2016-03-15 21:27:18.59,-52.073,-14.268,-1.89
441,2016-03-15 21:27:17.81,-1.063,-0.105,0.179,2016-03-15 21:27:18.59,-43.78,-6.646,0.366
442,2016-03-15 21:27:17.81,-1.003,0.005,0.232,2016-03-15 21:27:18.59,-31.585,-4.085,0.183
443,2016-03-15 21:27:17.81,-0.938,0.035,0.223,2016-03-15 21:27:18.59,-18.171,1.098,-1.707
444,2016-03-15 21:27:17.81,-0.918,-0.0,0.174,2016-03-15 21:27:18.59,-7.195,4.146,-6.585
445,2016-03-15 21:27:17.81,-0.957,-0.002,0.186,2016-03-15 21:27:18.59,0.244,8.049,-11.22
446,2016-03-15 21:27:17.81,-0.976,-0.026,0.216,2016-03-15 21:27:18.59,9.085,12.256,-15.671
447,2016-03-15 21:27:17.81,-0.983,-0.07,0.243,2016-03-15 21:27:18.59,21.646,21.159,-23.354
448,2016-03-15 21:27:17.81,-0.973,-0.077,0.23,2016-03-15 21:27:18.59,33.049,17.012,-34.878
449,2016-03-15 21:27:17.81,-0.978,-0.127,0.248,2016-03-15 21:27:18.59,33.232,16.402,-41.28
450,2016-03-15 21:27:17.81,-0.972,-0.136,0.287,2016-03-15 21:27:18.59,30.732,20.671,-40.671
451,2016-03-15 21:27:17.81,-0.993,-0.086,0.276,2016-03-15 21:27:18.59,13.72,25.183,-33.659
452,2016-03-15 21:27:17.81,-1.064,-0.09,0.185,2016-03-15 21:27:18.59,-5.793,17.256,-28.293
453,2016-03-15 21:27:17.81,-1.039,-0.088,0.145,2016-03-15 21:27:18.59,-3.963,-2.439,-16.89
454,2016-03-15 21:27:17.81,-1.161,-0.144,0.146,2016-03-15 21:27:18.59,-19.878,-13.11,-0.671
455,2016-03-15 21:27:17.81,-1.259,-0.204,0.014,2016-03-15 21:27:18.59,-21.341,-13.171,8.902
456,2016-03-15 21:27:17.81,-1.327,-0.183,0.062,2016-03-15 21:27:18.59,-24.878,-18.476,12.988
457,2016-03-15 21:27:17.81,-1.058,-0.23,0.104,2016-03-15 21:27:18.59,-35.427,-26.768,14.39
458,2016-03-15 21:27:17.81,-0.874,-0.288,0.013,2016-03-15 21:27:18.59,-43.78,-18.537,12.683
459,2016-03-15 21:27:17.81,-0.799,-0.316,-0.067,2016-03-15 21:27:18.59,-40.671,-21.585,12.744
460,2016-03-15 21:27:17.81,-0.933,-0.307,0.026,2016-03-15 21:27:18.59,-32.378,-22.561,12.561
461,2016-03-15 21:27:17.82,-0.936,-0.273,0.055,2016-03-15 21:27:18.59,-37.012,-17.073,11.524
462,2016-03-15 21:27:17.82,-0.9,-0.298,0.058,2016-03-15 21:27:18.59,-48.659,-11.768,13.049
463,2016-03-15 21:27:17.82,-0.9,-0.267,0.11,2016-03-15 21:27:18.59,-54.756,-7.012,11.951
464,2016-03-15 21:27:17.82,-0.89,-0.281,0.119,2016-03-15 21:27:18.59,-57.195,-7.073,11.524
465,2016-03-15 21:27:17.82,-0.929,-0.302,0.168,2016-03-15 21:27:18.59,-54.939,-7.073,13.537
466,2016-03-15 21:27:17.82,-0.972,-0.302,0.17,2016-03-15 21:27:18.59,-51.768,-6.707,18.049
467,2016-03-15 21:27:17.82,-0.975,-0.28,0.145,2016-03-15 21:27:18.60,-40.793,-13.598,19.756
468,2016-03-15 21:27:17.82,-0.966,-0.299,0.17,2016-03-15 21:27:18.60,-24.39,-16.037,14.634
469,2016-03-15 21:27:17.82,-0.945,-0.407,0.179,2016-03-15 21:27:18.60,-6.524,-10.244,12.012
470,2016-03-15 21:27:17.82,-0.925,-0.426,0.153,2016-03-15 21:27:18.60,-1.037,-10.122,9.878
471,2016-03-15 21:27:17.82,-0.887,-0.452,0.118,2016-03-15 21:27:18.60,-10.61,-14.146,14.207
472,2016-03-15 21:27:17.82,-1.081,-0.371,0.116,2016-03-15 21:27:18.60,4.207,3.902,18.476
473,2016-03-15 21:27:17.82,-1.229,-0.227,0.197,2016-03-15 21:27:18.60,19.146,17.073,13.049
474,2016-03-15 21:27:17.82,-1.127,-0.208,0.1,2016-03-15 21:27:18.60,13.049,11.341,11.037
475,2016-03-15 21:27:17.82,-0.849,-0.105,0.111,2016-03-15 21:27:18.60,16.646,6.768,7.317
476,2016-03-15 21:27:17.82,-0.854,0.035,0.077,2016-03-15 21:27:18.60,37.988,-7.561,-4.573
477,2016-03-15 21:27:17.82,-1.026,0.046,0.167,2016-03-15 21:27:18.60,57.683,-17.317,-19.268
478,2016-03-15 21:27:17.82,-1.095,-0.087,0.241,2016-03-15 21:27:18.60,77.073,5.671,-26.524
479,2016-03-15 21:27:17.82,-1.061,-0.131,0.214,2016-03-15 21:27:18.60,85.122,16.22,-27.378
480,2016-03-15 21:27:17.82,-0.891,-0.103,0.14,2016-03-15 21:27:18.60,104.085,18.841,-34.634
481,2016-03-15 21:27:17.82,-0.946,-0.132,0.146,2016-03-15 21:27:18.60,113.11,21.585,-41.28
482,2016-03-15 21:27:17.82,-1.033,-0.154,0.174,2016-03-15 21:27:18.60,107.622,24.756,-40.427
483,2016-03-15 21:27:17.82,-1.046,-0.136,0.174,2016-03-15 21:27:18.60,105.793,26.524,-36.098
484,2016-03-15 21:27:17.82,-1.004,-0.12,0.161,2016-03-15 21:27:18.60,98.78,17.622,-34.268
485,2016-03-15 21:27:17.82,-0.983,-0.102,0.22,2016-03-15 21:27:18.60,90.976,11.707,-33.476
486,2016-03-15 21:27:17.82,-1.019,-0.101,0.246,2016-03-15 21:27:18.60,89.756,4.634,-36.463
487,2016-03-15 21:27:17.82,-1.033,-0.15,0.257,2016-03-15 21:27:18.60,85.488,3.11,-36.829
488,2016-03-15 21:27:17.82,-1.042,-0.197,0.287,2016-03-15 21:27:18.60,53.963,-0.305,-30.793
489,2016-03-15 21:27:17.82,-1.046,-0.172,0.279,2016-03-15 21:27:18.60,29.878,-9.268,-23.415
490,2016-03-15 21:27:17.82,-1.088,-0.194,0.28,2016-03-15 21:27:18.60,-4.207,-14.512,-15.793
491,2016-03-15 21:27:17.82,-1.03,-0.19,0.254,2016-03-15 21:27:18.60,-17.683,-5.854,-12.561
492,2016-03-15 21:27:17.82,-0.867,-0.204,0.145,2016-03-15 21:27:18.60,-30.122,0.366,-9.512
493,2016-03-15 21:27:17.82,-0.816,-0.299,0.085,2016-03-15 21:27:18.60,-34.146,3.902,-1.524
494,2016-03-15 21:27:17.82,-0.921,-0.352,0.062,2016-03-15 21:27:18.60,-24.695,9.146,2.5
495,2016-03-15 21:27:17.82,-1.003,-0.382,0.102,2016-03-15 21:27:18.60,-36.585,9.512,9.268
496,2016-03-15 21:27:17.82,-0.953,-0.342,0.13,2016-03-15 21:27:18.60,-48.476,18.476,14.207
497,2016-03-15 21:27:17.82,-0.932,-0.306,0.045,2016-03-15 21:27:18.60,-43.598,24.939,14.207
498,2016-03-15 21:27:17.82,-0.941,-0.349,0.057,2016-03-15 21:27:18.60,-36.22,17.134,17.744
499,2016-03-15 21:27:17.82,-0.949,-0.392,0.097,2016-03-15 21:27:18.60,-38.963,11.098,24.085
500,2016-03-15 21:27:17.82,-0.94,-0.365,0.096,2016-03-15 21:27:18.60,-41.768,10.61,32.134
501,2016-03-15 21:27:17.83,-0.945,-0.304,0.088,2016-03-15 21:27:18.60,-51.524,5.732,40.793
502,2016-03-15 21:27:17.83,-0.967,-0.29,0.102,2016-03-15 21:27:18.60,-65.366,-2.5,47.744
503,2016-03-15 21:27:17.83,-1.004,-0.287,0.078,2016-03-15 21:27:18.60,-72.439,10.122,55.183
504,2016-03-15 21:27:17.83,-0.99,-0.294,0.022,2016-03-15 21:27:18.60,-82.256,45.305,62.439
505,2016-03-15 21:27:17.83,-0.979,-0.291,0.014,2016-03-15 21:27:18.60,-78.415,38.415,67.134
506,2016-03-15 21:27:17.83,-1.006,-0.281,0.011,2016-03-15 21:27:18.60,-73.963,16.22,72.866
507,2016-03-15 21:27:17.83,-0.993,-0.249,0.065,2016-03-15 21:27:18.60,-83.537,13.537,74.207
508,2016-03-15 21:27:17.83,-0.987,-0.21,0.07,2016-03-15 21:27:18.60,-90.976,13.72,78.293
509,2016-03-15 21:27:17.83,-1.013,-0.146,0.003,2016-03-15 21:27:18.60,-87.805,23.78,85.183
510,2016-03-15 21:27:17.83,-1.066,-0.011,-0.051,2016-03-15 21:27:18.60,-52.683,64.024,73.354
511,2016-03-15 21:27:17.83,-1.066,0.245,-0.172,2016-03-15 21:27:18.60,-39.146,88.598,58.11
512,2016-03-15 21:27:17.83,-0.917,0.262,-0.114,2016-03-15 21:27:18.61,-44.634,92.195,44.268
513,2016-03-15 21:27:17.83,-0.961,0.215,-0.188,2016-03-15 21:27:18.61,-59.268,82.927,45.061
514,2016-03-15 21:27:17.83,-0.908,0.244,-0.237,2016-03-15 21:27:18.61,-30.915,83.11,36.22
515,2016-03-15 21:27:17.83,-0.955,0.346,-0.259,2016-03-15 21:27:18.61,-52.195,77.622,32.683
516,2016-03-15 21:27:17.83,-0.918,0.352,-0.238,2016-03-15 21:27:18.61,-40.122,72.622,28.11
517,2016-03-15 21:27:17.83,-0.86,0.457,-0.268,2016-03-15 21:27:18.61,-9.512,49.634,18.659
518,2016-03-15 21:27:17.83,-0.816,0.478,-0.315,2016-03-15 21:27:18.61,-13.476,30.183,15.427
519,2016-03-15 21:27:17.83,-0.863,0.44,-0.341,2016-03-15 21:27:18.61,-16.585,26.22,11.402
520,2016-03-15 21:27:17.83,-0.877,0.458,-0.341,2016-03-15 21:27:18.61,-20.366,17.744,8.963
521,2016-03-15 21:27:17.83,-0.863,0.471,-0.372,2016-03-15 21:27:18.61,2.5,20.915,3.841
522,2016-03-15 21:27:17.83,-0.81,0.516,-0.396,2016-03-15 21:27:18.61,11.22,22.134,0.671
523,2016-03-15 21:27:17.83,-0.784,0.52,-0.411,2016-03-15 21:27:18.61,-12.988,11.341,1.89
524,2016-03-15 21:27:17.83,-0.8,0.471,-0.372,2016-03-15 21:27:18.61,-3.841,16.829,2.561
525,2016-03-15 21:27:17.83,-0.792,0.502,-0.442,2016-03-15 21:27:18.61,-11.646,20.0,4.024
526,2016-03-15 21:27:17.83,-0.795,0.456,-0.456,2016-03-15 21:27:18.61,-20.0,16.463,4.634
527,2016-03-15 21:27:17.83,-0.788,0.437,-0.409,2016-03-15 21:27:18.61,-24.512,5.61,8.537
528,2016-03-15 21:27:17.83,-0.747,0.47,-0.399,2016-03-15 21:27:18.61,1.159,4.207,8.11
529,2016-03-15 21:27:17.83,-0.777,0.48,-0.424,2016-03-15 21:27:18.61,11.585,14.573,2.256
530,2016-03-15 21:27:17.83,-0.757,0.432,-0.49,2016-03-15 21:27:18.61,4.512,21.463,-2.927
531,2016-03-15 21:27:17.83,-0.752,0.435,-0.487,2016-03-15 21:27:18.61,22.805,20.793,-2.073
532,2016-03-15 21:27:17.83,-0.733,0.474,-0.489,2016-03-15 21:27:18.61,12.805,4.512,3.049
533,2016-03-15 21:27:17.83,-0.79,0.453,-0.457,2016-03-15 21:27:18.61,15.549,-2.683,3.841
534,2016-03-15 21:27:17.83,-0.779,0.476,-0.475,2016-03-15 21:27:18.61,4.329,-2.561,9.146
535,2016-03-15 21:27:17.83,-0.778,0.48,-0.514,2016-03-15 21:27:18.61,-8.11,-7.5,13.72
536,2016-03-15 21:27:17.83,-0.819,0.489,-0.479,2016-03-15 21:27:18.61,7.622,-8.049,10.549
537,2016-03-15 21:27:17.83,-0.765,0.507,-0.514,2016-03-15 21:27:18.61,2.5,-5.488,10.732
538,2016-03-15 21:27:17.83,-0.769,0.43,-0.52,2016-03-15 21:27:18.61,-8.841,-7.5,11.829
539,2016-03-15 21:27:17.83,-0.772,0.422,-0.453,2016-03-15 21:27:18.61,2.256,-8.171,9.512
540,2016-03-15 21:27:17.84,-0.777,0.462,-0.447,2016-03-15 21:27:18.61,3.11,-8.963,7.195
541,2016-03-15 21:27:17.84,-0.765,0.453,-0.479,2016-03-15 21:27:18.61,3.049,-8.415,6.159
542,2016-03-15 21:27:17.84,-0.755,0.464,-0.484,2016-03-15 21:27:18.61,4.207,-6.89,5.915
543,2016-03-15 21:27:17.84,-0.75,0.454,-0.457,2016-03-15 21:27:18.61,8.354,-6.768,3.415
544,2016-03-15 21:27:17.84,-0.746,0.448,-0.458,2016-03-15 21:27:18.61,4.024,-3.963,2.5
545,2016-03-15 21:27:17.84,-0.758,0.454,-0.469,2016-03-15 21:27:18.61,2.5,-2.927,2.195
546,2016-03-15 21:27:17.84,-0.754,0.453,-0.459,2016-03-15 21:27:18.61,2.927,-4.146,1.402
547,2016-03-15 21:27:17.84,-0.765,0.469,-0.465,2016-03-15 21:27:18.61,2.5,-4.512,0.732
548,2016-03-15 21:27:17.84,-0.763,0.473,-0.452,2016-03-15 21:27:18.61,3.293,-1.22,0.366
549,2016-03-15 21:27:17.84,-0.757,0.488,-0.473,2016-03-15 21:27:18.61,3.476,-1.524,-1.22
550,2016-03-15 21:27:17.84,-0.77,0.476,-0.468,2016-03-15 21:27:18.61,-0.915,-1.646,-1.037
551,2016-03-15 21:27:17.84,-0.763,0.466,-0.462,2016-03-15 21:27:18.61,2.805,0.366,-0.427
552,2016-03-15 21:27:17.84,-0.764,0.467,-0.475,2016-03-15 21:27:18.61,2.317,0.915,0.366
553,2016-03-15 21:27:17.84,-0.755,0.451,-0.466,2016-03-15 21:27:18.61,0.732,-1.463,-0.427
554,2016-03-15 21:27:17.84,-0.769,0.459,-0.466,2016-03-15 21:27:18.61,1.28,-2.256,-0.732
555,2016-03-15 21:27:17.84,-0.755,0.467,-0.468,2016-03-15 21:27:18.62,0.244,-0.793,-0.427
556,2016-03-15 21:27:17.84,-0.76,0.458,-0.481,2016-03-15 21:27:18.62,1.524,-0.671,0.366
557,2016-03-15 21:27:17.84,-0.763,0.453,-0.465,2016-03-15 21:27:18.62,4.451,-1.098,0.549
558,2016-03-15 21:27:17.84,-0.758,0.458,-0.47,2016-03-15 21:27:18.62,4.329,-2.378,0.244
559,2016-03-15 21:27:17.84,-0.762,0.463,-0.48,2016-03-15 21:27:18.62,0.366,-2.866,1.28
560,2016-03-15 21:27:17.84,-0.767,0.453,-0.474,2016-03-15 21:27:18.62,-0.366,-4.024,1.22
561,2016-03-15 21:27:17.84,-0.767,0.453,-0.461,2016-03-15 21:27:18.62,0.244,-3.049,0.488
562,2016-03-15 21:27:17.84,-0.761,0.458,-0.47,2016-03-15 21:27:18.62,1.22,-2.622,0.488
563,2016-03-15 21:27:17.84,-0.761,0.458,-0.468,2016-03-15 21:27:18.62,2.195,-4.878,0.061
564,2016-03-15 21:27:17.84,-0.776,0.456,-0.465,2016-03-15 21:27:18.62,1.159,-5.488,-0.122
565,2016-03-15 21:27:17.84,-0.773,0.46,-0.461,2016-03-15 21:27:18.62,-0.61,-1.951,0.366
566,2016-03-15 21:27:17.84,-0.77,0.469,-0.459,2016-03-15 21:27:18.62,-2.378,-1.524,-0.366
567,2016-03-15 21:27:17.84,-0.779,0.465,-0.448,2016-03-15 21:27:18.62,-2.439,-1.524,-2.073
568,2016-03-15 21:27:17.84,-0.787,0.457,-0.445,2016-03-15 21:27:18.62,-3.659,-0.244,-1.829
569,2016-03-15 21:27:17.84,-0.772,0.449,-0.43,2016-03-15 21:27:18.62,-4.634,-0.122,-1.707
570,2016-03-15 21:27:17.84,-0.777,0.441,-0.437,2016-03-15 21:27:18.62,-5.793,1.159,-0.549
571,2016-03-15 21:27:17.84,-0.781,0.465,-0.454,2016-03-15 21:27:18.62,-5.366,0.732,-1.341
572,2016-03-15 21:27:17.84,-0.78,0.468,-0.458,2016-03-15 21:27:18.62,-8.537,-1.098,-2.073
573,2016-03-15 21:27:17.84,-0.785,0.449,-0.432,2016-03-15 21:27:18.62,-5.061,0.061,-1.585
574,2016-03-15 21:27:17.84,-0.779,0.458,-0.44,2016-03-15 21:27:18.62,-6.098,2.134,-0.549
575,2016-03-15 21:27:17.84,-0.777,0.456,-0.431,2016-03-15 21:27:18.62,-8.72,7.317,0.61
576,2016-03-15 21:27:17.84,-0.77,0.459,-0.44,2016-03-15 21:27:18.62,-10.366,9.085,1.463
577,2016-03-15 21:27:17.84,-0.777,0.479,-0.446,2016-03-15 21:27:18.62,-3.963,3.841,1.524
578,2016-03-15 21:27:17.84,-0.785,0.491,-0.43,2016-03-15 21:27:18.62,-5.305,0.915,0.915
579,2016-03-15 21:27:17.84,-0.775,0.463,-0.429,2016-03-15 21:27:18.62,-2.683,-1.159,-0.305
580,2016-03-15 21:27:17.84,-0.784,0.466,-0.423,2016-03-15 21:27:18.62,-2.073,-0.915,0.732
581,2016-03-15 21:27:17.84,-0.761,0.479,-0.413,2016-03-15 21:27:18.62,1.951,-5.549,0.976
582,2016-03-15 21:27:17.84,-0.765,0.503,-0.418,2016-03-15 21:27:18.62,3.598,-6.768,0.732
583,2016-03-15 21:27:17.84,-0.788,0.501,-0.394,2016-03-15 21:27:18.62,4.756,-5.488,2.683
584,2016-03-15 21:27:17.84,-0.774,0.505,-0.424,2016-03-15 21:27:18.62,8.78,-8.598,2.683
585,2016-03-15 21:27:17.85,-0.79,0.485,-0.395,2016-03-15 21:27:18.62,12.317,-7.988,3.78
586,2016-03-15 21:27:17.85,-0.782,0.479,-0.385,2016-03-15 21:27:18.62,15.549,-7.134,5.183
587,2016-03-15 21:27:17.85,-0.762,0.489,-0.412,2016-03-15 21:27:18.62,17.439,-8.476,6.037
588,2016-03-15 21:27:17.85,-0.771,0.491,-0.419,2016-03-15 21:27:18.62,17.256,-9.451,7.134
589,2016-03-15 21:27:17.85,-0.771,0.494,-0.407,2016-03-15 21:27:18.62,19.329,-11.341,6.89
590,2016-03-15 21:27:17.85,-0.765,0.497,-0.422,2016-03-15 21:27:18.62,23.659,-16.159,6.951
591,2016-03-15 21:27:17.85,-0.789,0.484,-0.419,2016-03-15 21:27:18.62,27.805,-17.012,9.451
592,2016-03-15 21:27:17.85,-0.794,0.486,-0.417,2016-03-15 21:27:18.62,27.561,-19.939,12.744
593,2016-03-15 21:27:17.85,-0.807,0.473,-0.424,2016-03-15 21:27:18.62,26.707,-19.451,14.939
594,2016-03-15 21:27:17.85,-0.802,0.456,-0.404,2016-03-15 21:27:18.62,27.866,-18.293,15.61
595,2016-03-15 21:27:17.85,-0.782,0.456,-0.43,2016-03-15 21:27:18.62,29.451,-20.61,15.061
596,2016-03-15 21:27:17.85,-0.798,0.447,-0.416,2016-03-15 21:27:18.62,27.5,-17.866,16.402
597,2016-03-15 21:27:17.85,-0.777,0.453,-0.435,2016-03-15 21:27:18.63,24.512,-20.488,14.878
598,2016-03-15 21:27:17.85,-0.797,0.436,-0.443,2016-03-15 21:27:18.63,21.768,-19.39,11.951
599,2016-03-15 21:27:17.85,-0.799,0.417,-0.415,2016-03-15 21:27:18.63,19.695,-14.024,12.134
600,2016-03-15 21:27:17.85,-0.785,0.43,-0.438,2016-03-15 21:27:18.63,17.866,-19.085,8.049
601,2016-03-15 21:27:17.85,-0.798,0.427,-0.438,2016-03-15 21:27:18.63,19.573,-18.537,7.012
602,2016-03-15 21:27:17.85,-0.811,0.427,-0.405,2016-03-15 21:27:18.63,20.488,-12.378,7.866
603,2016-03-15 21:27:17.85,-0.801,0.442,-0.415,2016-03-15 21:27:18.63,19.512,-8.78,7.195
604,2016-03-15 21:27:17.85,-0.811,0.436,-0.409,2016-03-15 21:27:18.63,17.866,-5.976,5.793
605,2016-03-15 21:27:17.85,-0.807,0.43,-0.409,2016-03-15 21:27:18.63,9.939,-5.0,4.207
606,2016-03-15 21:27:17.85,-0.816,0.433,-0.425,2016-03-15 21:27:18.63,5.183,-3.902,2.561
607,2016-03-15 21:27:17.85,-0.815,0.436,-0.419,2016-03-15 21:27:18.63,1.585,-4.268,1.098
608,2016-03-15 21:27:17.85,-0.818,0.431,-0.415,2016-03-15 21:27:18.63,0.305,-2.256,0.061
609,2016-03-15 21:27:17.85,-0.814,0.426,-0.417,2016-03-15 21:27:18.63,-0.427,-1.951,-1.037
610,2016-03-15 21:27:17.85,-0.813,0.421,-0.41,2016-03-15 21:27:18.63,-0.854,-1.768,-2.378
611,2016-03-15 21:27:17.85,-0.813,0.425,-0.415,2016-03-15 21:27:18.63,-2.012,-2.683,-2.805
612,2016-03-15 21:27:17.85,-0.823,0.427,-0.405,2016-03-15 21:27:18.63,-1.037,-4.756,-2.378
613,2016-03-15 21:27:17.85,-0.822,0.432,-0.405,2016-03-15 21:27:18.63,-0.366,-4.878,-1.463
614,2016-03-15 21:27:17.85,-0.819,0.424,-0.398,2016-03-15 21:27:18.63,-1.829,-6.159,-1.646
615,2016-03-15 21:27:17.85,-0.832,0.424,-0.403,2016-03-15 21:27:18.63,4.39,-4.146,-1.098
616,2016-03-15 21:27:17.85,-0.828,0.421,-0.396,2016-03-15 21:27:18.63,6.402,0.793,-1.28
617,2016-03-15 21:27:17.85,-0.827,0.403,-0.372,2016-03-15 21:27:18.63,7.134,-5.549,-1.402
618,2016-03-15 21:27:17.85,-0.836,0.423,-0.38,2016-03-15 21:27:18.63,6.585,-12.5,-1.707
619,2016-03-15 21:27:17.85,-0.829,0.433,-0.389,2016-03-15 21:27:18.63,7.866,-13.476,-1.707
620,2016-03-15 21:27:17.85,-0.842,0.437,-0.389,2016-03-15 21:27:18.63,6.037,-10.61,-0.549
621,2016-03-15 21:27:17.85,-0.843,0.424,-0.377,2016-03-15 21:27:18.63,4.878,-9.695,1.159
622,2016-03-15 21:27:17.85,-0.846,0.422,-0.366,2016-03-15 21:27:18.63,4.451,-6.524,2.012
623,2016-03-15 21:27:17.85,-0.838,0.417,-0.369,2016-03-15 21:27:18.63,2.866,-4.695,2.683
624,2016-03-15 21:27:17.85,-0.839,0.42,-0.366,2016-03-15 21:27:18.63,5.732,-4.024,2.561
625,2016-03-15 21:27:17.86,-0.833,0.417,-0.369,2016-03-15 21:27:18.63,8.841,-8.049,-1.463
626,2016-03-15 21:27:17.86,-0.832,0.414,-0.345,2016-03-15 21:27:18.63,9.756,-16.402,-5.488
627,2016-03-15 21:27:17.86,-0.841,0.423,-0.341,2016-03-15 21:27:18.63,14.268,-9.756,-6.707
628,2016-03-15 21:27:17.86,-0.788,0.429,-0.383,2016-03-15 21:27:18.63,15.549,-10.305,-2.683
629,2016-03-15 21:27:17.86,-0.828,0.451,-0.374,2016-03-15 21:27:18.63,14.329,-8.659,2.439
630,2016-03-15 21:27:17.86,-0.844,0.461,-0.367,2016-03-15 21:27:18.63,14.207,-6.646,4.329
631,2016-03-15 21:27:17.86,-0.846,0.459,-0.355,2016-03-15 21:27:18.63,12.561,-9.756,5.427
632,2016-03-15 21:27:17.86,-0.84,0.428,-0.355,2016-03-15 21:27:18.63,12.5,-8.598,7.073
633,2016-03-15 21:27:17.86,-0.823,0.404,-0.371,2016-03-15 21:27:18.63,13.78,-9.817,9.756
634,2016-03-15 21:27:17.86,-0.844,0.427,-0.374,2016-03-15 21:27:18.63,15.488,-9.207,11.768
635,2016-03-15 21:27:17.86,-0.854,0.429,-0.358,2016-03-15 21:27:18.63,19.085,0.488,13.293
636,2016-03-15 21:27:17.86,-0.847,0.383,-0.328,2016-03-15 21:27:18.64,15.854,-3.171,11.951
637,2016-03-15 21:27:17.86,-0.877,0.401,-0.345,2016-03-15 21:27:18.64,7.866,-7.683,8.963
638,2016-03-15 21:27:17.86,-0.861,0.418,-0.374,2016-03-15 21:27:18.64,3.049,-9.695,4.817
639,2016-03-15 21:27:17.86,-0.868,0.403,-0.364,2016-03-15 21:27:18.64,-0.976,-10.915,2.012
640,2016-03-15 21:27:17.86,-0.888,0.39,-0.354,2016-03-15 21:27:18.64,-1.768,-9.512,-0.488
641,2016-03-15 21:27:17.86,-0.896,0.382,-0.335,2016-03-15 21:27:18.64,-3.841,-11.402,-4.268
642,2016-03-15 21:27:17.86,-0.883,0.359,-0.316,2016-03-15 21:27:18.64,-12.317,-19.268,-9.329
643,2016-03-15 21:27:17.86,-0.899,0.363,-0.308,2016-03-15 21:27:18.64,-18.537,-31.22,-14.329
644,2016-03-15 21:27:17.86,-0.93,0.398,-0.338,2016-03-15 21:27:18.64,-15.0,-35.244,-17.073
645,2016-03-15 21:27:17.86,-0.941,0.377,-0.288,2016-03-15 21:27:18.64,-9.512,-37.073,-19.207
646,2016-03-15 21:27:17.86,-0.967,0.339,-0.228,2016-03-15 21:27:18.64,-5.793,-44.939,-21.829
647,2016-03-15 21:27:17.86,-0.966,0.325,-0.212,2016-03-15 21:27:18.64,-0.793,-45.854,-24.207
648,2016-03-15 21:27:17.86,-0.959,0.327,-0.202,2016-03-15 21:27:18.64,8.354,-46.524,-27.073
649,2016-03-15 21:27:17.86,-0.953,0.3,-0.187,2016-03-15 21:27:18.64,21.585,-41.22,-34.268
650,2016-03-15 21:27:17.86,-0.978,0.252,-0.139,2016-03-15 21:27:18.64,36.768,-43.476,-39.451
651,2016-03-15 21:27:17.86,-0.993,0.236,-0.114,2016-03-15 21:27:18.64,46.402,-29.268,-40.488
652,2016-03-15 21:27:17.86,-0.962,0.187,-0.092,2016-03-15 21:27:18.64,51.28,-25.427,-37.195
653,2016-03-15 21:27:17.86,-0.976,0.187,-0.104,2016-03-15 21:27:18.64,45.305,-24.085,-34.329
654,2016-03-15 21:27:17.86,-0.963,0.176,-0.088,2016-03-15 21:27:18.64,41.22,-22.134,-34.634
655,2016-03-15 21:27:17.86,-1.009,0.166,-0.056,2016-03-15 21:27:18.64,39.146,-27.561,-35.183
656,2016-03-15 21:27:17.86,-1.066,0.133,-0.035,2016-03-15 21:27:18.64,43.598,-22.561,-36.22
657,2016-03-15 21:27:17.86,-1.055,0.099,-0.04,2016-03-15 21:27:18.64,52.256,-23.049,-36.646
658,2016-03-15 21:27:17.86,-1.053,0.063,-0.021,2016-03-15 21:27:18.64,52.073,-24.207,-35.732
659,2016-03-15 21:27:17.86,-1.042,0.031,-0.029,2016-03-15 21:27:18.64,49.512,-30.61,-35.976
660,2016-03-15 21:27:17.86,-1.042,-0.009,-0.006,2016-03-15 21:27:18.64,49.817,-29.939,-37.134
661,2016-03-15 21:27:17.86,-1.043,-0.027,-0.005,2016-03-15 21:27:18.64,45.61,-28.354,-35.122
662,2016-03-15 21:27:17.86,-1.042,-0.062,0.028,2016-03-15 21:27:18.64,45.549,-27.744,-33.171
663,2016-03-15 21:27:17.86,-1.028,-0.062,0.057,2016-03-15 21:27:18.64,46.524,-30.305,-33.049
664,2016-03-15 21:27:17.86,-1.027,-0.115,0.053,2016-03-15 21:27:18.64,48.415,-25.854,-33.598
665,2016-03-15 21:27:17.86,-1.011,-0.165,0.048,2016-03-15 21:27:18.64,44.756,-21.951,-31.22
666,2016-03-15 21:27:17.86,-0.983,-0.184,0.048,2016-03-15 21:27:18.64,40.366,-20.183,-27.805
667,2016-03-15 21:27:17.86,-0.992,-0.177,0.05,2016-03-15 21:27:18.64,35.366,-22.805,-22.866
668,2016-03-15 21:27:17.86,-0.967,-0.173,0.091,2016-03-15 21:27:18.64,34.024,-25.183,-17.012
669,2016-03-15 21:27:17.86,-0.999,-0.148,0.113,2016-03-15 21:27:18.64,31.037,-22.744,-10.549
670,2016-03-15 21:27:17.86,-1.003,-0.136,0.15,2016-03-15 21:27:18.64,28.963,-19.634,-5.244
671,2016-03-15 21:27:17.87,-0.993,-0.117,0.181,2016-03-15 21:27:18.64,30.976,-18.293,-3.537
672,2016-03-15 21:27:17.87,-0.972,-0.13,0.195,2016-03-15 21:27:18.64,27.805,-13.354,-2.195
673,2016-03-15 21:27:17.87,-0.967,-0.149,0.197,2016-03-15 21:27:18.64,29.634,-6.951,-1.463
674,2016-03-15 21:27:17.87,-0.983,-0.107,0.215,2016-03-15 21:27:18.64,34.207,-6.646,-3.598
675,2016-03-15 21:27:17.87,-0.958,-0.097,0.231,2016-03-15 21:27:18.64,32.988,-5.183,-6.28
676,2016-03-15 21:27:17.87,-0.966,-0.06,0.244,2016-03-15 21:27:18.64,20.0,-9.878,-6.951
677,2016-03-15 21:27:17.87,-0.998,-0.044,0.27,2016-03-15 21:27:18.64,18.659,-6.829,-7.378
678,2016-03-15 21:27:17.87,-1.025,-0.006,0.269,2016-03-15 21:27:18.64,22.012,-1.341,-7.134
679,2016-03-15 21:27:17.87,-1.008,-0.01,0.32,2016-03-15 21:27:18.64,27.805,-9.207,-8.293
680,2016-03-15 21:27:17.87,-0.981,-0.012,0.359,2016-03-15 21:27:18.65,28.963,-10.305,-9.329
681,2016-03-15 21:27:17.87,-0.982,-0.02,0.351,2016-03-15 21:27:18.65,36.463,-10.244,-11.28
682,2016-03-15 21:27:17.87,-0.99,-0.0,0.35,2016-03-15 21:27:18.65,42.5,-20.305,-12.988
683,2016-03-15 21:27:17.87,-0.99,0.0,0.371,2016-03-15 21:27:18.65,37.378,-10.183,-14.451
684,2016-03-15 21:27:17.87,-0.95,-0.003,0.337,2016-03-15 21:27:18.65,41.098,-24.817,-21.098
685,2016-03-15 21:27:17.87,-1.041,-0.111,0.368,2016-03-15 21:27:18.65,30.915,-15.915,-24.512
686,2016-03-15 21:27:17.87,-0.962,-0.171,0.352,2016-03-15 21:27:18.65,12.256,-1.646,-17.195
687,2016-03-15 21:27:17.87,-0.848,-0.108,0.318,2016-03-15 21:27:18.65,15.305,-4.878,-15.793
688,2016-03-15 21:27:17.87,-0.93,-0.089,0.325,2016-03-15 21:27:18.65,19.146,-6.829,-17.988
689,2016-03-15 21:27:17.87,-0.943,-0.124,0.378,2016-03-15 21:27:18.65,14.207,-0.366,-22.866
690,2016-03-15 21:27:17.87,-0.903,-0.187,0.373,2016-03-15 21:27:18.65,24.39,2.439,-22.988
691,2016-03-15 21:27:17.87,-0.971,-0.156,0.372,2016-03-15 21:27:18.65,26.524,5.0,-15.366
692,2016-03-15 21:27:17.87,-0.923,-0.154,0.432,2016-03-15 21:27:18.65,28.78,-1.951,-13.293
693,2016-03-15 21:27:17.87,-0.897,-0.212,0.38,2016-03-15 21:27:18.65,23.049,2.744,-15.915
694,2016-03-15 21:27:17.87,-0.95,-0.248,0.398,2016-03-15 21:27:18.65,11.707,4.756,-15.549
695,2016-03-15 21:27:17.87,-0.894,-0.255,0.394,2016-03-15 21:27:18.65,9.939,1.768,-11.646
696,2016-03-15 21:27:17.87,-0.893,-0.235,0.42,2016-03-15 21:27:18.65,9.756,1.89,-7.561
697,2016-03-15 21:27:17.87,-0.923,-0.223,0.399,2016-03-15 21:27:18.65,4.146,2.073,-5.305
698,2016-03-15 21:27:17.87,-0.922,-0.204,0.417,2016-03-15 21:27:18.65,-0.244,2.5,-3.72
699,2016-03-15 21:27:17.87,-0.923,-0.223,0.41,2016-03-15 21:27:18.65,-1.463,4.939,-2.988
700,2016-03-15 21:27:17.87,-0.917,-0.238,0.397,2016-03-15 21:27:18.65,-1.585,4.39,-2.073
701,2016-03-15 21:27:17.87,-0.91,-0.251,0.399,2016-03-15 21:27:18.65,-0.915,1.524,-1.098
702,2016-03-15 21:27:17.87,-0.914,-0.25,0.402,2016-03-15 21:27:18.65,-3.11,0.854,-1.463
703,2016-03-15 21:27:17.87,-0.9,-0.244,0.387,2016-03-15 21:27:18.65,-5.671,-3.171,-3.293
704,2016-03-15 21:27:17.87,-0.899,-0.255,0.378,2016-03-15 21:27:18.65,-6.341,-6.098,-4.085
705,2016-03-15 21:27:17.87,-0.904,-0.258,0.386,2016-03-15 21:27:18.65,-8.354,-6.89,-3.659
706,2016-03-15 21:27:17.88,-0.905,-0.25,0.399,2016-03-15 21:27:18.65,-7.134,-6.341,-3.415
707,2016-03-15 21:27:17.88,-0.907,-0.234,0.402,2016-03-15 21:27:18.65,-5.61,-5.488,-2.988
708,2016-03-15 21:27:17.88,-0.919,-0.239,0.406,2016-03-15 21:27:18.65,-9.329,-8.415,-2.317
709,2016-03-15 21:27:17.88,-0.918,-0.243,0.421,2016-03-15 21:27:18.65,-9.573,-9.39,-2.317
710,2016-03-15 21:27:17.88,-0.905,-0.241,0.422,2016-03-15 21:27:18.65,-7.622,-2.378,-2.073
711,2016-03-15 21:27:17.88,-0.902,-0.247,0.401,2016-03-15 21:27:18.65,-8.049,-1.829,-1.89
712,2016-03-15 21:27:17.88,-0.897,-0.259,0.452,2016-03-15 21:27:18.65,-7.378,-1.28,-2.195
713,2016-03-15 21:27:17.88,-0.909,-0.271,0.414,2016-03-15 21:27:18.65,-6.524,0.854,-1.89
714,2016-03-15 21:27:17.88,-0.899,-0.261,0.406,2016-03-15 21:27:18.65,-5.915,1.646,-2.012
715,2016-03-15 21:27:17.88,-0.892,-0.273,0.419,2016-03-15 21:27:18.65,-3.354,-0.305,-1.951
716,2016-03-15 21:27:17.88,-0.9,-0.279,0.4,2016-03-15 21:27:18.65,-1.524,0.366,-1.768
717,2016-03-15 21:27:17.88,-0.909,-0.276,0.404,2016-03-15 21:27:18.65,-6.402,-0.427,-0.732
718,2016-03-15 21:27:17.88,-0.89,-0.284,0.445,2016-03-15 21:27:18.65,-6.159,-0.732,-0.305
719,2016-03-15 21:27:17.88,-0.885,-0.277,0.399,2016-03-15 21:27:18.65,-3.598,0.61,-0.061
720,2016-03-15 21:27:17.88,-0.9,-0.288,0.416,2016-03-15 21:27:18.65,-1.341,1.585,-0.488
721,2016-03-15 21:27:17.88,-0.901,-0.297,0.421,2016-03-15 21:27:18.65,1.037,2.561,-0.793
722,2016-03-15 21:27:17.88,-0.896,-0.29,0.404,2016-03-15 21:27:18.65,1.037,2.378,-0.671
723,2016-03-15 21:27:17.88,-0.898,-0.289,0.412,2016-03-15 21:27:18.65,0.793,1.341,-1.037
724,2016-03-15 21:27:17.88,-0.896,-0.288,0.399,2016-03-15 21:27:18.65,1.341,-0.122,-0.976
725,2016-03-15 21:27:17.88,-0.894,-0.283,0.399,2016-03-15 21:27:18.66,1.28,0.305,-0.915
726,2016-03-15 21:27:17.88,-0.894,-0.289,0.416,2016-03-15 21:27:18.66,0.061,1.829,-0.976
727,2016-03-15 21:27:17.88,-0.898,-0.285,0.409,2016-03-15 21:27:18.66,1.402,1.646,-0.671
728,2016-03-15 21:27:17.88,-0.898,-0.284,0.399,2016-03-15 21:27:18.66,2.256,1.098,-0.61
729,2016-03-15 21:27:17.88,-0.896,-0.291,0.402,2016-03-15 21:27:18.66,2.012,-0.366,-0.488
730,2016-03-15 21:27:17.88,-0.901,-0.287,0.405,2016-03-15 21:27:18.66,2.073,-0.61,-0.305
731,2016-03-15 21:27:17.88,-0.897,-0.286,0.396,2016-03-15 21:27:18.66,2.134,-0.732,0.366
732,2016-03-15 21:27:17.88,-0.893,-0.287,0.41,2016-03-15 21:27:18.66,2.073,-1.463,0.793
733,2016-03-15 21:27:17.88,-0.898,-0.288,0.409,2016-03-15 21:27:18.66,0.976,-0.305,0.915
734,2016-03-15 21:27:17.88,-0.89,-0.291,0.399,2016-03-15 21:27:18.66,0.671,-0.488,1.159
735,2016-03-15 21:27:17.88,-0.896,-0.285,0.404,2016-03-15 21:27:18.66,0.366,1.037,1.585
736,2016-03-15 21:27:17.88,-0.891,-0.283,0.404,2016-03-15 21:27:18.66,0.061,0.305,1.768
737,2016-03-15 21:27:17.88,-0.898,-0.293,0.411,2016-03-15 21:27:18.66,0.427,0.122,1.951
738,2016-03-15 21:27:17.88,-0.895,-0.283,0.416,2016-03-15 21:27:18.66,-0.427,2.561,2.073
739,2016-03-15 21:27:17.88,-0.9,-0.283,0.388,2016-03-15 21:27:18.66,-2.317,3.171,2.256
740,2016-03-15 21:27:17.88,-0.894,-0.289,0.421,2016-03-15 21:27:18.66,-0.732,3.171,2.317
741,2016-03-15 21:27:17.88,-0.901,-0.283,0.404,2016-03-15 21:27:18.66,0.427,2.012,1.829
742,2016-03-15 21:27:17.88,-0.9,-0.285,0.397,2016-03-15 21:27:18.66,0.549,1.037,1.707
743,2016-03-15 21:27:17.88,-0.903,-0.288,0.399,2016-03-15 21:27:18.66,0.61,1.341,1.707
744,2016-03-15 21:27:17.88,-0.903,-0.279,0.396,2016-03-15 21:27:18.66,-0.549,0.61,1.829
745,2016-03-15 21:27:17.88,-0.902,-0.281,0.401,2016-03-15 21:27:18.66,-1.341,-0.793,1.951
746,2016-03-15 21:27:17.88,-0.904,-0.281,0.398,2016-03-15 21:27:18.66,-4.085,0.122,2.317
747,2016-03-15 21:27:17.88,-0.899,-0.281,0.396,2016-03-15 21:27:18.66,-5.183,-2.927,2.317
748,2016-03-15 21:27:17.88,-0.91,-0.288,0.404,2016-03-15 21:27:18.66,-4.512,-2.195,2.683
749,2016-03-15 21:27:17.88,-0.903,-0.285,0.387,2016-03-15 21:27:18.66,-6.829,-2.683,3.537
750,2016-03-15 21:27:17.88,-0.899,-0.285,0.396,2016-03-15 21:27:18.66,-7.683,-1.646,3.963
751,2016-03-15 21:27:17.89,-0.901,-0.288,0.399,2016-03-15 21:27:18.66,-10.732,-0.183,4.695
752,2016-03-15 21:27:17.89,-0.902,-0.285,0.393,2016-03-15 21:27:18.66,-12.195,-1.159,5.488
753,2016-03-15 21:27:17.89,-0.903,-0.29,0.414,2016-03-15 21:27:18.66,-10.61,-2.256,6.341
754,2016-03-15 21:27:17.89,-0.906,-0.279,0.382,2016-03-15 21:27:18.66,-11.159,-3.293,6.89
755,2016-03-15 21:27:17.89,-0.9,-0.281,0.386,2016-03-15 21:27:18.66,-11.402,-3.476,7.378
756,2016-03-15 21:27:17.89,-0.903,-0.284,0.386,2016-03-15 21:27:18.66,-11.463,-2.805,7.744
757,2016-03-15 21:27:17.89,-0.906,-0.279,0.386,2016-03-15 21:27:18.66,-11.89,-4.695,8.11
758,2016-03-15 21:27:17.89,-0.904,-0.285,0.397,2016-03-15 21:27:18.66,-11.951,-2.622,9.207
759,2016-03-15 21:27:17.89,-0.903,-0.278,0.386,2016-03-15 21:27:18.66,-12.073,-1.646,9.451
760,2016-03-15 21:27:17.89,-0.9,-0.281,0.379,2016-03-15 21:27:18.66,-13.049,-0.671,9.756
761,2016-03-15 21:27:17.89,-0.901,-0.28,0.384,2016-03-15 21:27:18.66,-13.659,2.012,10.671
762,2016-03-15 21:27:17.89,-0.904,-0.278,0.386,2016-03-15 21:27:18.66,-12.805,3.476,11.341
763,2016-03-15 21:27:17.89,-0.901,-0.273,0.373,2016-03-15 21:27:18.66,-11.585,3.049,11.341
764,2016-03-15 21:27:17.89,-0.906,-0.281,0.373,2016-03-15 21:27:18.66,-12.073,3.354,10.915
765,2016-03-15 21:27:17.89,-0.915,-0.277,0.385,2016-03-15 21:27:18.66,-14.573,10.305,12.012
766,2016-03-15 21:27:17.89,-0.907,-0.264,0.374,2016-03-15 21:27:18.66,-19.268,9.634,13.415
767,2016-03-15 21:27:17.89,-0.911,-0.256,0.393,2016-03-15 21:27:18.66,-19.207,5.732,13.963
768,2016-03-15 21:27:17.89,-0.938,-0.254,0.38,2016-03-15 21:27:18.66,-19.817,8.415,15.61
769,2016-03-15 21:27:17.89,-0.927,-0.219,0.344,2016-03-15 21:27:18.66,-20.793,6.341,16.768
770,2016-03-15 21:27:17.89,-0.935,-0.221,0.348,2016-03-15 21:27:18.66,-25.061,5.427,19.024
771,2016-03-15 21:27:17.89,-0.95,-0.203,0.336,2016-03-15 21:27:18.67,-28.78,3.537,19.878
772,2016-03-15 21:27:17.89,-0.96,-0.202,0.338,2016-03-15 21:27:18.67,-31.28,6.829,23.232
773,2016-03-15 21:27:17.89,-0.946,-0.175,0.333,2016-03-15 21:27:18.67,-34.878,6.22,25.732
774,2016-03-15 21:27:17.89,-0.961,-0.166,0.329,2016-03-15 21:27:18.67,-39.817,7.622,27.744
775,2016-03-15 21:27:17.89,-0.971,-0.149,0.331,2016-03-15 21:27:18.67,-43.659,8.902,29.756
776,2016-03-15 21:27:17.89,-0.972,-0.136,0.337,2016-03-15 21:27:18.67,-43.963,1.28,30.427
777,2016-03-15 21:27:17.89,-0.989,-0.129,0.347,2016-03-15 21:27:18.67,-44.329,2.988,28.476
778,2016-03-15 21:27:17.89,-0.981,-0.126,0.3,2016-03-15 21:27:18.67,-41.585,3.902,25.854
779,2016-03-15 21:27:17.89,-0.951,-0.093,0.293,2016-03-15 21:27:18.67,-30.305,-3.354,19.756
780,2016-03-15 21:27:17.89,-0.989,-0.094,0.299,2016-03-15 21:27:18.67,-21.524,-7.5,11.524
781,2016-03-15 21:27:17.89,-1.023,-0.135,0.32,2016-03-15 21:27:18.67,-12.5,-10.671,3.598
782,2016-03-15 21:27:17.89,-0.998,-0.142,0.341,2016-03-15 21:27:18.67,-4.451,-16.829,-2.622
783,2016-03-15 21:27:17.89,-0.976,-0.093,0.341,2016-03-15 21:27:18.67,0.488,-22.683,-7.195
784,2016-03-15 21:27:17.89,-0.991,-0.09,0.357,2016-03-15 21:27:18.67,4.085,-25.061,-11.22
785,2016-03-15 21:27:17.89,-0.993,-0.117,0.355,2016-03-15 21:27:18.67,2.195,-23.963,-13.415
786,2016-03-15 21:27:17.89,-0.998,-0.14,0.328,2016-03-15 21:27:18.67,1.098,-15.61,-15.854
787,2016-03-15 21:27:17.89,-0.954,-0.165,0.317,2016-03-15 21:27:18.67,2.195,-9.329,-15.915
788,2016-03-15 21:27:17.89,-0.89,-0.143,0.315,2016-03-15 21:27:18.67,10.549,-10.61,-15.244
789,2016-03-15 21:27:17.89,-0.916,-0.134,0.334,2016-03-15 21:27:18.67,17.988,-8.78,-15.244
790,2016-03-15 21:27:17.89,-0.938,-0.17,0.354,2016-03-15 21:27:18.67,19.817,-8.902,-17.134
791,2016-03-15 21:27:17.89,-0.933,-0.201,0.376,2016-03-15 21:27:18.67,20.0,-8.354,-17.927
792,2016-03-15 21:27:17.90,-0.93,-0.202,0.371,2016-03-15 21:27:18.67,18.841,-12.866,-18.232
793,2016-03-15 21:27:17.90,-0.912,-0.198,0.357,2016-03-15 21:27:18.67,18.72,-11.524,-17.683
794,2016-03-15 21:27:17.90,-0.879,-0.178,0.331,2016-03-15 21:27:18.67,16.951,1.463,-17.195
795,2016-03-15 21:27:17.90,-0.861,-0.184,0.315,2016-03-15 21:27:18.67,13.537,8.476,-19.146
796,2016-03-15 21:27:17.90,-0.899,-0.23,0.395,2016-03-15 21:27:18.67,10.0,11.159,-21.951
797,2016-03-15 21:27:17.90,-0.983,-0.291,0.413,2016-03-15 21:27:18.67,4.939,19.207,-22.866
798,2016-03-15 21:27:17.90,-0.973,-0.305,0.39,2016-03-15 21:27:18.67,5.671,28.476,-21.585
799,2016-03-15 21:27:17.90,-0.914,-0.262,0.384,2016-03-15 21:27:18.67,5.427,32.927,-18.232
800,2016-03-15 21:27:17.90,-0.866,-0.273,0.368,2016-03-15 21:27:18.67,3.537,26.646,-15.061
801,2016-03-15 21:27:17.90,-0.902,-0.331,0.353,2016-03-15 21:27:18.67,2.866,13.232,-10.61
802,2016-03-15 21:27:17.90,-0.986,-0.363,0.394,2016-03-15 21:27:18.67,2.439,4.878,-5.732
803,2016-03-15 21:27:17.90,-0.965,-0.35,0.396,2016-03-15 21:27:18.67,-2.988,2.134,-0.854
804,2016-03-15 21:27:17.90,-0.927,-0.333,0.377,2016-03-15 21:27:18.67,-3.293,-3.841,0.976
805,2016-03-15 21:27:17.90,-0.886,-0.346,0.36,2016-03-15 21:27:18.67,0.0,-15.305,0.122
806,2016-03-15 21:27:17.90,-0.863,-0.366,0.349,2016-03-15 21:27:18.67,-4.512,-29.329,-0.061
807,2016-03-15 21:27:17.90,-0.861,-0.377,0.335,2016-03-15 21:27:18.67,-1.037,-32.805,2.012
808,2016-03-15 21:27:17.90,-1.095,-0.342,0.318,2016-03-15 21:27:18.67,12.012,6.402,13.902
809,2016-03-15 21:27:17.90,-0.973,-0.195,0.343,2016-03-15 21:27:18.67,-1.768,-6.829,9.939
810,2016-03-15 21:27:17.90,-0.784,-0.263,0.357,2016-03-15 21:27:18.67,-10.61,-13.659,13.049
811,2016-03-15 21:27:17.90,-0.875,-0.247,0.329,2016-03-15 21:27:18.67,-7.561,-12.5,13.171
812,2016-03-15 21:27:17.90,-0.959,-0.241,0.367,2016-03-15 21:27:18.67,-8.476,-7.988,12.378
813,2016-03-15 21:27:17.90,-0.912,-0.228,0.35,2016-03-15 21:27:18.67,-10.854,-7.5,15.122
814,2016-03-15 21:27:17.90,-0.903,-0.228,0.35,2016-03-15 21:27:18.67,-12.073,-7.256,17.439
815,2016-03-15 21:27:17.90,-0.902,-0.225,0.374,2016-03-15 21:27:18.67,-9.451,-4.451,17.622
816,2016-03-15 21:27:17.90,-0.908,-0.239,0.386,2016-03-15 21:27:18.67,-8.049,-3.537,17.012
817,2016-03-15 21:27:17.90,-0.922,-0.252,0.395,2016-03-15 21:27:18.68,-11.585,-4.878,16.402
818,2016-03-15 21:27:17.90,-0.926,-0.242,0.402,2016-03-15 21:27:18.68,-16.585,-5.183,15.732
819,2016-03-15 21:27:17.90,-0.946,-0.233,0.409,2016-03-15 21:27:18.68,-19.817,2.012,15.244
820,2016-03-15 21:27:17.90,-0.933,-0.221,0.39,2016-03-15 21:27:18.68,-20.061,0.732,13.354
821,2016-03-15 21:27:17.90,-0.913,-0.228,0.408,2016-03-15 21:27:18.68,-16.829,-0.915,10.122
822,2016-03-15 21:27:17.90,-0.912,-0.238,0.389,2016-03-15 21:27:18.68,-18.476,7.805,7.927
823,2016-03-15 21:27:17.90,-0.9,-0.248,0.393,2016-03-15 21:27:18.68,-16.402,11.89,5.305
824,2016-03-15 21:27:17.90,-0.906,-0.248,0.416,2016-03-15 21:27:18.68,-9.451,9.573,1.829
825,2016-03-15 21:27:17.90,-0.93,-0.263,0.386,2016-03-15 21:27:18.68,-4.756,9.756,-0.549
826,2016-03-15 21:27:17.90,-0.93,-0.251,0.373,2016-03-15 21:27:18.68,0.61,12.012,-3.659
827,2016-03-15 21:27:17.90,-0.916,-0.256,0.364,2016-03-15 21:27:18.68,7.988,15.549,-6.646
828,2016-03-15 21:27:17.90,-0.93,-0.263,0.367,2016-03-15 21:27:18.68,11.341,23.354,-11.402
829,2016-03-15 21:27:17.90,-0.925,-0.282,0.386,2016-03-15 21:27:18.68,15.244,29.695,-16.585
830,2016-03-15 21:27:17.90,-0.917,-0.33,0.359,2016-03-15 21:27:18.68,29.695,26.829,-17.927
831,2016-03-15 21:27:17.90,-0.934,-0.295,0.321,2016-03-15 21:27:18.68,34.878,29.817,-20.549
832,2016-03-15 21:27:17.91,-0.929,-0.301,0.319,2016-03-15 21:27:18.68,44.817,29.817,-23.963
833,2016-03-15 21:27:17.91,-0.934,-0.307,0.295,2016-03-15 21:27:18.68,55.061,29.085,-27.256
834,2016-03-15 21:27:17.91,-0.936,-0.317,0.279,2016-03-15 21:27:18.68,62.561,29.878,-29.024
835,2016-03-15 21:27:17.91,-0.931,-0.35,0.269,2016-03-15 21:27:18.68,70.366,28.78,-28.537
836,2016-03-15 21:27:17.91,-0.923,-0.345,0.263,2016-03-15 21:27:18.68,66.341,27.195,-23.171
837,2016-03-15 21:27:17.91,-0.93,-0.324,0.272,2016-03-15 21:27:18.68,67.317,23.354,-16.341
838,2016-03-15 21:27:17.91,-0.938,-0.312,0.282,2016-03-15 21:27:18.68,69.085,12.683,-9.329
839,2016-03-15 21:27:17.91,-0.971,-0.309,0.285,2016-03-15 21:27:18.68,63.963,10.366,-2.439
840,2016-03-15 21:27:17.91,-0.995,-0.28,0.283,2016-03-15 21:27:18.68,60.244,22.378,3.598
841,2016-03-15 21:27:17.91,-0.963,-0.242,0.283,2016-03-15 21:27:18.68,56.037,17.256,5.122
842,2016-03-15 21:27:17.91,-0.923,-0.273,0.313,2016-03-15 21:27:18.68,52.134,6.402,6.585
843,2016-03-15 21:27:17.91,-0.947,-0.301,0.29,2016-03-15 21:27:18.68,49.939,1.159,8.171
844,2016-03-15 21:27:17.91,-0.966,-0.3,0.273,2016-03-15 21:27:18.68,43.78,0.61,9.756
845,2016-03-15 21:27:17.91,-0.97,-0.282,0.265,2016-03-15 21:27:18.68,39.939,4.817,11.28
846,2016-03-15 21:27:17.91,-0.961,-0.261,0.276,2016-03-15 21:27:18.68,41.098,2.622,11.768
847,2016-03-15 21:27:17.91,-0.945,-0.255,0.257,2016-03-15 21:27:18.68,39.207,-1.098,11.89
848,2016-03-15 21:27:17.91,-0.961,-0.238,0.255,2016-03-15 21:27:18.68,39.024,-2.256,8.171
849,2016-03-15 21:27:17.91,-0.985,-0.226,0.272,2016-03-15 21:27:18.68,44.817,-0.793,5.671
850,2016-03-15 21:27:17.91,-0.989,-0.229,0.266,2016-03-15 21:27:18.68,43.293,5.061,7.439
851,2016-03-15 21:27:17.91,-0.957,-0.186,0.274,2016-03-15 21:27:18.68,43.232,6.951,7.317
852,2016-03-15 21:27:17.91,-0.935,-0.15,0.25,2016-03-15 21:27:18.68,45.183,7.134,1.951
853,2016-03-15 21:27:17.91,-0.954,-0.129,0.229,2016-03-15 21:27:18.68,35.61,4.817,-0.122
854,2016-03-15 21:27:17.91,-1.003,-0.064,0.237,2016-03-15 21:27:18.68,32.378,2.988,0.061
855,2016-03-15 21:27:17.91,-1.021,-0.012,0.246,2016-03-15 21:27:18.68,36.402,0.061,-0.305
856,2016-03-15 21:27:17.91,-1.034,0.007,0.252,2016-03-15 21:27:18.68,39.329,-4.756,-2.134
857,2016-03-15 21:27:17.91,-1.034,0.002,0.27,2016-03-15 21:27:18.68,30.122,7.5,0.61
858,2016-03-15 21:27:17.91,-0.995,0.01,0.271,2016-03-15 21:27:18.68,30.366,6.585,-3.049
859,2016-03-15 21:27:17.91,-0.944,0.008,0.262,2016-03-15 21:27:18.68,33.171,4.329,-9.024
860,2016-03-15 21:27:17.91,-0.969,-0.036,0.263,2016-03-15 21:27:18.68,34.39,1.707,-14.024
861,2016-03-15 21:27:17.91,-0.999,-0.044,0.273,2016-03-15 21:27:18.68,31.524,6.951,-17.866
862,2016-03-15 21:27:17.91,-0.973,-0.057,0.277,2016-03-15 21:27:18.68,27.439,6.159,-20.915
863,2016-03-15 21:27:17.91,-0.967,-0.041,0.306,2016-03-15 21:27:18.69,29.207,5.976,-23.537
864,2016-03-15 21:27:17.91,-0.974,-0.041,0.303,2016-03-15 21:27:18.69,29.634,5.854,-25.793
865,2016-03-15 21:27:17.91,-0.954,-0.054,0.322,2016-03-15 21:27:18.69,27.256,2.744,-26.951
866,2016-03-15 21:27:17.91,-0.958,-0.066,0.333,2016-03-15 21:27:18.69,24.634,3.537,-25.976
867,2016-03-15 21:27:17.91,-0.966,-0.065,0.34,2016-03-15 21:27:18.69,20.488,-1.463,-23.415
868,2016-03-15 21:27:17.91,-0.974,-0.062,0.362,2016-03-15 21:27:18.69,15.976,-5.61,-23.11
869,2016-03-15 21:27:17.91,-0.969,-0.092,0.358,2016-03-15 21:27:18.69,17.805,-17.195,-24.146
870,2016-03-15 21:27:17.91,-1.058,-0.136,0.354,2016-03-15 21:27:18.69,10.305,-12.073,-22.073
871,2016-03-15 21:27:17.91,-1.075,-0.172,0.333,2016-03-15 21:27:18.69,3.293,-7.805,-18.11
872,2016-03-15 21:27:17.91,-1.087,-0.165,0.255,2016-03-15 21:27:18.69,12.012,5.305,-2.988
873,2016-03-15 21:27:17.91,-1.04,-0.129,0.254,2016-03-15 21:27:18.69,6.89,5.244,-2.5
874,2016-03-15 21:27:17.91,-0.916,-0.14,0.273,2016-03-15 21:27:18.69,-2.073,-5.549,-7.134
875,2016-03-15 21:27:17.91,-0.918,-0.226,0.252,2016-03-15 21:27:18.69,-15.305,-12.683,-7.805
876,2016-03-15 21:27:17.91,-0.917,-0.233,0.249,2016-03-15 21:27:18.69,-19.024,-17.256,-7.744
877,2016-03-15 21:27:17.91,-0.946,-0.214,0.254,2016-03-15 21:27:18.69,-18.049,-18.963,-9.024
878,2016-03-15 21:27:17.91,-0.965,-0.215,0.268,2016-03-15 21:27:18.69,-16.402,-15.488,-12.317
879,2016-03-15 21:27:17.92,-0.946,-0.229,0.249,2016-03-15 21:27:18.69,-20.671,-10.854,-14.878
880,2016-03-15 21:27:17.92,-0.899,-0.259,0.244,2016-03-15 21:27:18.69,-30.488,-10.549,-13.11
881,2016-03-15 21:27:17.92,-0.949,-0.353,0.254,2016-03-15 21:27:18.69,-33.476,-15.0,-6.159
882,2016-03-15 21:27:17.92,-1.014,-0.363,0.332,2016-03-15 21:27:18.69,-33.11,-14.451,-0.305
883,2016-03-15 21:27:17.92,-0.974,-0.297,0.362,2016-03-15 21:27:18.69,-34.024,0.366,1.768
884,2016-03-15 21:27:17.92,-0.884,-0.307,0.324,2016-03-15 21:27:18.69,-33.598,3.72,1.646
885,2016-03-15 21:27:17.92,-0.843,-0.354,0.304,2016-03-15 21:27:18.69,-32.256,7.988,1.341
886,2016-03-15 21:27:17.92,-0.856,-0.379,0.265,2016-03-15 21:27:18.69,-32.073,4.939,4.756
887,2016-03-15 21:27:17.92,-0.909,-0.378,0.317,2016-03-15 21:27:18.69,-25.732,3.11,9.634
888,2016-03-15 21:27:17.92,-0.921,-0.353,0.32,2016-03-15 21:27:18.69,-23.11,5.183,14.512
889,2016-03-15 21:27:17.92,-0.905,-0.335,0.309,2016-03-15 21:27:18.69,-22.622,3.598,18.537
890,2016-03-15 21:27:17.92,-0.885,-0.333,0.322,2016-03-15 21:27:18.69,-19.817,0.976,19.878
891,2016-03-15 21:27:17.92,-0.892,-0.347,0.338,2016-03-15 21:27:18.69,-13.78,2.317,18.963
892,2016-03-15 21:27:17.92,-0.909,-0.368,0.33,2016-03-15 21:27:18.69,-9.451,4.268,18.78
893,2016-03-15 21:27:17.92,-0.896,-0.371,0.319,2016-03-15 21:27:18.69,-6.89,-2.012,20.976
894,2016-03-15 21:27:17.92,-0.905,-0.354,0.309,2016-03-15 21:27:18.69,-3.72,-7.866,24.207
895,2016-03-15 21:27:17.92,-0.914,-0.32,0.333,2016-03-15 21:27:18.69,-4.695,-4.451,24.207
896,2016-03-15 21:27:17.92,-0.913,-0.32,0.386,2016-03-15 21:27:18.69,-6.098,-3.72,23.415
897,2016-03-15 21:27:17.92,-0.911,-0.354,0.371,2016-03-15 21:27:18.69,-6.341,-29.817,21.524
898,2016-03-15 21:27:17.92,-0.997,-0.336,0.369,2016-03-15 21:27:18.69,5.915,-18.963,18.902
899,2016-03-15 21:27:17.92,-1.084,-0.292,0.341,2016-03-15 21:27:18.69,5.427,6.829,18.11
900,2016-03-15 21:27:17.92,-1.013,-0.238,0.262,2016-03-15 21:27:18.69,2.073,7.256,15.305
901,2016-03-15 21:27:17.92,-0.96,-0.261,0.3,2016-03-15 21:27:18.69,1.89,-2.195,13.11
902,2016-03-15 21:27:17.92,-0.893,-0.26,0.243,2016-03-15 21:27:18.69,9.024,7.439,13.72
903,2016-03-15 21:27:17.92,-0.931,-0.138,0.251,2016-03-15 21:27:18.69,4.817,8.415,14.939
904,2016-03-15 21:27:17.92,-0.976,-0.1,0.258,2016-03-15 21:27:18.69,-9.817,13.598,17.256
905,2016-03-15 21:27:17.92,-0.995,-0.065,0.237,2016-03-15 21:27:18.69,-22.134,17.378,17.744
906,2016-03-15 21:27:17.92,-0.974,-0.054,0.202,2016-03-15 21:27:18.69,-20.793,2.683,13.902
907,2016-03-15 21:27:17.92,-1.027,-0.023,0.219,2016-03-15 21:27:18.69,-13.171,-9.634,7.622
908,2016-03-15 21:27:17.92,-1.056,-0.093,0.268,2016-03-15 21:27:18.69,-9.573,-6.402,6.159
909,2016-03-15 21:27:17.92,-1.023,-0.11,0.298,2016-03-15 21:27:18.69,-15.0,2.988,9.207
910,2016-03-15 21:27:17.92,-0.965,-0.076,0.291,2016-03-15 21:27:18.69,-18.293,9.634,9.817
911,2016-03-15 21:27:17.92,-0.929,-0.014,0.247,2016-03-15 21:27:18.69,-21.159,-0.244,6.646
912,2016-03-15 21:27:17.92,-0.984,-0.031,0.22,2016-03-15 21:27:18.69,-22.439,4.207,5.061
913,2016-03-15 21:27:17.92,-1.001,-0.046,0.25,2016-03-15 21:27:18.69,-24.451,8.11,3.354
914,2016-03-15 21:27:17.92,-0.982,-0.054,0.292,2016-03-15 21:27:18.69,-18.11,3.293,-2.683
915,2016-03-15 21:27:17.92,-0.96,-0.096,0.28,2016-03-15 21:27:18.70,-8.963,1.768,-10.183
916,2016-03-15 21:27:17.92,-0.936,-0.107,0.286,2016-03-15 21:27:18.70,-0.854,4.024,-17.073
917,2016-03-15 21:27:17.92,-0.923,-0.117,0.292,2016-03-15 21:27:18.70,2.744,3.72,-21.585
918,2016-03-15 21:27:17.92,-0.944,-0.116,0.306,2016-03-15 21:27:18.70,5.915,3.659,-24.756
919,2016-03-15 21:27:17.92,-0.996,-0.126,0.31,2016-03-15 21:27:18.70,7.927,5.305,-25.854
920,2016-03-15 21:27:17.92,-1.012,-0.143,0.315,2016-03-15 21:27:18.70,10.976,4.146,-23.72
921,2016-03-15 21:27:17.92,-1.006,-0.147,0.338,2016-03-15 21:27:18.70,14.817,3.415,-19.146
922,2016-03-15 21:27:17.92,-0.988,-0.132,0.364,2016-03-15 21:27:18.70,14.207,-5.427,-14.817
923,2016-03-15 21:27:17.92,-1.015,-0.131,0.397,2016-03-15 21:27:18.70,3.232,8.415,-4.268
924,2016-03-15 21:27:17.92,-1.153,-0.143,0.31,2016-03-15 21:27:18.70,-2.927,6.768,-1.341
925,2016-03-15 21:27:17.93,-1.107,-0.175,0.282,2016-03-15 21:27:18.70,-11.707,5.366,3.963
926,2016-03-15 21:27:17.93,-1.005,-0.119,0.215,2016-03-15 21:27:18.70,-16.28,-4.878,1.829
927,2016-03-15 21:27:17.93,-0.883,-0.122,0.157,2016-03-15 21:27:18.70,-14.329,-17.439,-4.512
928,2016-03-15 21:27:17.93,-0.903,-0.218,0.153,2016-03-15 21:27:18.70,-25.366,-10.0,0.61
929,2016-03-15 21:27:17.93,-0.952,-0.212,0.187,2016-03-15 21:27:18.70,-44.817,-13.659,8.415
930,2016-03-15 21:27:17.93,-0.972,-0.151,0.188,2016-03-15 21:27:18.70,-47.805,-12.927,11.463
931,2016-03-15 21:27:17.93,-0.952,-0.17,0.145,2016-03-15 21:27:18.70,-47.866,-14.39,15.244
932,2016-03-15 21:27:17.93,-0.957,-0.232,0.138,2016-03-15 21:27:18.70,-59.756,-17.927,24.39
933,2016-03-15 21:27:17.93,-1.005,-0.201,0.162,2016-03-15 21:27:18.70,-78.78,-20.61,32.195
934,2016-03-15 21:27:17.93,-1.059,-0.148,0.196,2016-03-15 21:27:18.70,-90.427,-23.902,34.756
935,2016-03-15 21:27:17.93,-1.074,-0.157,0.216,2016-03-15 21:27:18.70,-104.146,-22.5,36.524
936,2016-03-15 21:27:17.93,-1.016,-0.174,0.205,2016-03-15 21:27:18.70,-113.415,-18.72,36.098
937,2016-03-15 21:27:17.93,-0.962,-0.189,0.164,2016-03-15 21:27:18.70,-115.549,-16.829,34.207
938,2016-03-15 21:27:17.93,-0.958,-0.219,0.159,2016-03-15 21:27:18.70,-115.976,-16.463,32.744
939,2016-03-15 21:27:17.93,-0.973,-0.231,0.196,2016-03-15 21:27:18.70,-114.756,-17.622,30.732
940,2016-03-15 21:27:17.93,-0.974,-0.234,0.215,2016-03-15 21:27:18.70,-115.0,-17.073,29.146
941,2016-03-15 21:27:17.93,-0.968,-0.247,0.236,2016-03-15 21:27:18.70,-116.098,-15.0,29.268
942,2016-03-15 21:27:17.93,-0.952,-0.253,0.248,2016-03-15 21:27:18.70,-116.585,-18.232,29.878
943,2016-03-15 21:27:17.93,-0.935,-0.248,0.245,2016-03-15 21:27:18.70,-110.366,-17.195,30.305
944,2016-03-15 21:27:17.93,-0.938,-0.265,0.251,2016-03-15 21:27:18.70,-104.756,-17.195,31.524
945,2016-03-15 21:27:17.93,-0.963,-0.286,0.284,2016-03-15 21:27:18.70,-100.61,-19.695,32.805
946,2016-03-15 21:27:17.93,-0.971,-0.281,0.291,2016-03-15 21:27:18.70,-102.744,-22.195,32.683
947,2016-03-15 21:27:17.93,-0.939,-0.264,0.277,2016-03-15 21:27:18.70,-100.0,-14.146,31.159
948,2016-03-15 21:27:17.93,-1.001,-0.274,0.224,2016-03-15 21:27:18.70,-71.646,18.232,34.268
949,2016-03-15 21:27:17.93,-1.15,-0.229,0.152,2016-03-15 21:27:18.70,-99.939,4.451,33.537
950,2016-03-15 21:27:17.93,-0.979,-0.123,0.149,2016-03-15 21:27:18.70,-91.89,13.476,33.78
951,2016-03-15 21:27:17.93,-1.01,-0.048,0.106,2016-03-15 21:27:18.70,-94.756,23.171,35.0
952,2016-03-15 21:27:17.93,-0.969,0.04,0.145,2016-03-15 21:27:18.70,-96.951,10.976,35.122
953,2016-03-15 21:27:17.93,-1.025,0.025,0.131,2016-03-15 21:27:18.70,-85.488,4.756,32.073
954,2016-03-15 21:27:17.93,-1.023,-0.021,0.09,2016-03-15 21:27:18.70,-73.598,7.622,28.72
955,2016-03-15 21:27:17.93,-0.988,-0.054,0.059,2016-03-15 21:27:18.70,-72.439,8.415,27.378
956,2016-03-15 21:27:17.93,-0.998,-0.023,0.074,2016-03-15 21:27:18.70,-78.171,-1.768,23.293
957,2016-03-15 21:27:17.93,-1.045,-0.003,0.117,2016-03-15 21:27:18.70,-78.293,-10.0,18.598
958,2016-03-15 21:27:17.93,-1.05,0.035,0.138,2016-03-15 21:27:18.70,-77.988,-13.72,16.159
959,2016-03-15 21:27:17.93,-1.036,0.084,0.13,2016-03-15 21:27:18.70,-82.134,-15.61,11.768
960,2016-03-15 21:27:17.93,-1.026,0.072,0.126,2016-03-15 21:27:18.70,-85.854,-17.378,5.0
961,2016-03-15 21:27:17.93,-0.998,0.063,0.121,2016-03-15 21:27:18.71,-84.695,-25.0,-2.683
962,2016-03-15 21:27:17.93,-1.009,0.039,0.132,2016-03-15 21:27:18.71,-80.976,-27.927,-10.061
963,2016-03-15 21:27:17.93,-1.01,-0.007,0.164,2016-03-15 21:27:18.71,-71.098,-25.305,-18.963
964,2016-03-15 21:27:17.93,-1.003,-0.078,0.165,2016-03-15 21:27:18.71,-62.134,-15.976,-26.341
965,2016-03-15 21:27:17.93,-0.984,-0.111,0.14,2016-03-15 21:27:18.71,-63.11,-8.415,-27.744
966,2016-03-15 21:27:17.93,-0.979,-0.112,0.162,2016-03-15 21:27:18.71,-59.695,-3.963,-25.488
967,2016-03-15 21:27:17.93,-1.025,-0.108,0.18,2016-03-15 21:27:18.71,-53.049,-1.768,-21.89
968,2016-03-15 21:27:17.93,-1.022,-0.124,0.185,2016-03-15 21:27:18.71,-48.354,7.073,-18.72
969,2016-03-15 21:27:17.93,-0.97,-0.137,0.167,2016-03-15 21:27:18.71,-42.5,14.939,-17.012
970,2016-03-15 21:27:17.93,-0.96,-0.159,0.155,2016-03-15 21:27:18.71,-33.476,17.439,-16.829
971,2016-03-15 21:27:17.93,-1.002,-0.195,0.168,2016-03-15 21:27:18.71,-28.963,19.695,-17.073
972,2016-03-15 21:27:17.94,-1.027,-0.23,0.131,2016-03-15 21:27:18.71,-28.659,22.073,-15.549
973,2016-03-15 21:27:17.94,-1.008,-0.277,0.109,2016-03-15 21:27:18.71,-31.463,17.012,-14.573
974,2016-03-15 21:27:17.94,-0.936,-0.324,0.146,2016-03-15 21:27:18.71,-31.829,14.268,-15.244
975,2016-03-15 21:27:17.94,-0.923,-0.376,0.12,2016-03-15 21:27:18.71,-28.171,9.634,-13.476
976,2016-03-15 21:27:17.94,-0.993,-0.415,0.119,2016-03-15 21:27:18.71,-22.012,4.268,-13.232
977,2016-03-15 21:27:17.94,-1.007,-0.411,0.138,2016-03-15 21:27:18.71,-26.22,2.927,-13.963
978,2016-03-15 21:27:17.94,-0.916,-0.39,0.109,2016-03-15 21:27:18.71,-39.329,4.146,-11.768
979,2016-03-15 21:27:17.94,-0.86,-0.388,0.051,2016-03-15 21:27:18.71,-43.841,9.451,-7.134
980,2016-03-15 21:27:17.94,-0.898,-0.385,-0.002,2016-03-15 21:27:18.71,-38.171,13.232,-2.866
981,2016-03-15 21:27:17.94,-0.957,-0.354,-0.008,2016-03-15 21:27:18.71,-30.793,24.878,1.402
982,2016-03-15 21:27:17.94,-0.911,-0.315,-0.04,2016-03-15 21:27:18.71,-35.427,35.915,4.695
983,2016-03-15 21:27:17.94,-0.84,-0.315,-0.064,2016-03-15 21:27:18.71,-35.305,33.598,5.549
984,2016-03-15 21:27:17.94,-0.91,-0.371,-0.116,2016-03-15 21:27:18.71,-40.427,40.854,7.012
985,2016-03-15 21:27:17.94,-0.892,-0.335,-0.165,2016-03-15 21:27:18.71,-42.866,43.963,5.122
986,2016-03-15 21:27:17.94,-0.877,-0.295,-0.181,2016-03-15 21:27:18.71,-31.28,43.963,2.927
987,2016-03-15 21:27:17.94,-0.865,-0.291,-0.241,2016-03-15 21:27:18.71,-24.451,31.585,5.732
988,2016-03-15 21:27:17.94,-0.908,-0.328,-0.284,2016-03-15 21:27:18.71,-26.707,32.134,8.72
989,2016-03-15 21:27:17.94,-0.869,-0.275,-0.268,2016-03-15 21:27:18.71,-19.268,26.22,11.22
990,2016-03-15 21:27:17.94,-0.915,-0.253,-0.316,2016-03-15 21:27:18.71,-14.207,19.451,10.549
991,2016-03-15 21:27:17.94,-0.877,-0.258,-0.308,2016-03-15 21:27:18.71,-1.402,4.146,6.037
992,2016-03-15 21:27:17.94,-0.875,-0.272,-0.317,2016-03-15 21:27:18.71,12.805,-2.317,6.524
993,2016-03-15 21:27:17.94,-0.919,-0.277,-0.363,2016-03-15 21:27:18.71,13.841,-8.78,9.878
994,2016-03-15 21:27:17.94,-0.942,-0.26,-0.407,2016-03-15 21:27:18.71,22.744,-7.805,13.11
995,2016-03-15 21:27:17.94,-0.951,-0.233,-0.413,2016-03-15 21:27:18.71,27.195,-17.744,20.732
996,2016-03-15 21:27:17.94,-0.973,-0.231,-0.391,2016-03-15 21:27:18.71,16.829,-27.012,31.037
997,2016-03-15 21:27:17.94,-1.063,-0.155,-0.413,2016-03-15 21:27:18.71,6.22,-45.305,33.476
998,2016-03-15 21:27:17.94,-1.098,-0.161,-0.322,2016-03-15 21:27:18.71,-3.598,-51.28,30.061
999,2016-03-15 21:27:17.94,-1.11,-0.133,-0.295,2016-03-15 21:27:18.71,-7.317,-55.732,20.854
1000,2016-03-15 21:27:17.94,-1.149,-0.187,-0.241,2016-03-15 21:27:18.71,-2.622,-53.963,11.037
1001,2016-03-15 21:27:17.94,-1.188,-0.202,-0.179,2016-03-15 21:27:18.71,-3.415,-51.524,3.232
1002,2016-03-15 21:27:17.94,-1.084,-0.198,-0.11,2016-03-15 21:27:18.71,9.878,-61.341,-8.902
1003,2016-03-15 21:27:17.94,-0.994,-0.196,-0.028,2016-03-15 21:27:18.71,18.293,-53.72,-10.244
1004,2016-03-15 21:27:17.94,-0.931,-0.184,0.036,2016-03-15 21:27:18.71,17.622,-50.976,-3.232
1005,2016-03-15 21:27:17.94,-0.96,-0.136,0.085,2016-03-15 21:27:18.71,23.72,-46.951,0.61
1006,2016-03-15 21:27:17.94,-1.007,-0.102,0.112,2016-03-15 21:27:18.71,28.049,-33.659,0.549
1007,2016-03-15 21:27:17.94,-1.055,-0.126,0.207,2016-03-15 21:27:18.72,31.22,-30.244,1.098
1008,2016-03-15 21:27:17.94,-1.036,-0.164,0.234,2016-03-15 21:27:18.72,29.39,-19.756,3.11
1009,2016-03-15 21:27:17.94,-0.984,-0.144,0.215,2016-03-15 21:27:18.72,31.341,-18.841,6.159
1010,2016-03-15 21:27:17.94,-0.951,-0.139,0.261,2016-03-15 21:27:18.72,25.976,-16.585,12.378
1011,2016-03-15 21:27:17.94,-0.945,-0.13,0.289,2016-03-15 21:27:18.72,20.671,-12.988,17.317
1012,2016-03-15 21:27:17.94,-0.991,-0.112,0.332,2016-03-15 21:27:18.72,19.39,-11.159,20.854
1013,2016-03-15 21:27:17.94,-1.005,-0.125,0.314,2016-03-15 21:27:18.72,19.024,-14.146,23.963
1014,2016-03-15 21:27:17.94,-0.979,-0.11,0.316,2016-03-15 21:27:18.72,19.146,-15.244,28.11
1015,2016-03-15 21:27:17.94,-0.967,-0.07,0.296,2016-03-15 21:27:18.72,7.073,-10.732,28.78
1016,2016-03-15 21:27:17.94,-1.004,-0.059,0.266,2016-03-15 21:27:18.72,-0.366,2.805,24.817
1017,2016-03-15 21:27:17.94,-0.997,-0.041,0.252,2016-03-15 21:27:18.72,-10.183,20.549,22.805
1018,2016-03-15 21:27:17.94,-0.964,-0.037,0.265,2016-03-15 21:27:18.72,-16.463,23.049,17.012
1019,2016-03-15 21:27:17.94,-0.975,-0.022,0.221,2016-03-15 21:27:18.72,-13.049,19.146,14.268
1020,2016-03-15 21:27:17.94,-1.01,-0.009,0.306,2016-03-15 21:27:18.72,1.037,15.671,14.634
1021,2016-03-15 21:27:17.94,-0.968,0.033,0.305,2016-03-15 21:27:18.72,3.963,11.402,11.585
1022,2016-03-15 21:27:17.94,-0.951,0.059,0.277,2016-03-15 21:27:18.72,8.171,10.976,1.037
1023,2016-03-15 21:27:17.95,-0.989,0.037,0.218,2016-03-15 21:27:18.72,11.524,10.061,-5.488
1024,2016-03-15 21:27:17.95,-1.0,0.028,0.229,2016-03-15 21:27:18.72,17.866,6.768,-6.341
1025,2016-03-15 21:27:17.95,-1.051,0.048,0.244,2016-03-15 21:27:18.72,26.829,13.963,-7.256
1026,2016-03-15 21:27:17.95,-1.027,0.074,0.157,2016-03-15 21:27:18.72,35.366,17.683,-7.195
1027,2016-03-15 21:27:17.95,-0.997,0.045,0.129,2016-03-15 21:27:18.72,38.232,23.049,-5.793
1028,2016-03-15 21:27:17.95,-0.99,0.042,0.11,2016-03-15 21:27:18.72,44.207,18.72,-6.341
1029,2016-03-15 21:27:17.95,-1.045,0.004,0.12,2016-03-15 21:27:18.72,38.232,15.793,-5.732
1030,2016-03-15 21:27:17.95,-1.003,0.002,0.106,2016-03-15 21:27:18.72,31.707,25.488,0.793
1031,2016-03-15 21:27:17.95,-1.031,0.125,0.068,2016-03-15 21:27:18.72,14.146,21.768,2.012
1032,2016-03-15 21:27:17.95,-0.986,0.142,-0.008,2016-03-15 21:27:18.72,10.305,7.256,-8.232
1033,2016-03-15 21:27:17.95,-0.984,0.057,0.001,2016-03-15 21:27:18.72,12.439,1.951,-11.829
1034,2016-03-15 21:27:17.95,-1.038,0.035,0.093,2016-03-15 21:27:18.72,0.671,0.854,-11.341
1035,2016-03-15 21:27:17.95,-1.109,0.061,0.132,2016-03-15 21:27:18.72,-15.183,-1.28,-10.976
1036,2016-03-15 21:27:17.95,-1.072,0.023,0.083,2016-03-15 21:27:18.72,-18.415,-1.524,-10.915
1037,2016-03-15 21:27:17.95,-1.01,-0.026,0.061,2016-03-15 21:27:18.72,-17.134,3.11,-8.72
1038,2016-03-15 21:27:17.95,-0.995,-0.051,0.055,2016-03-15 21:27:18.72,-19.146,3.78,-8.049
1039,2016-03-15 21:27:17.95,-1.01,-0.062,0.073,2016-03-15 21:27:18.72,-20.488,-4.634,-10.854
1040,2016-03-15 21:27:17.95,-1.046,-0.05,0.083,2016-03-15 21:27:18.72,-15.488,-0.427,-11.037
1041,2016-03-15 21:27:17.95,-1.043,-0.028,0.08,2016-03-15 21:27:18.72,-14.451,-0.915,-8.659
1042,2016-03-15 21:27:17.95,-1.019,-0.042,0.082,2016-03-15 21:27:18.72,-12.256,-4.146,-9.024
1043,2016-03-15 21:27:17.95,-1.008,-0.031,0.069,2016-03-15 21:27:18.72,-8.049,-4.695,-8.293
1044,2016-03-15 21:27:17.95,-1.025,-0.035,0.051,2016-03-15 21:27:18.72,-5.122,-5.305,-7.073
1045,2016-03-15 21:27:17.95,-1.026,-0.05,0.06,2016-03-15 21:27:18.72,-2.195,-7.683,-3.78
1046,2016-03-15 21:27:17.95,-1.021,-0.052,0.069,2016-03-15 21:27:18.72,-0.366,-9.146,-1.463
1047,2016-03-15 21:27:17.95,-1.023,-0.056,0.075,2016-03-15 21:27:18.72,-0.671,-5.061,-1.768
1048,2016-03-15 21:27:17.95,-1.021,-0.084,0.083,2016-03-15 21:27:18.72,-2.134,-3.11,-2.378
1049,2016-03-15 21:27:17.95,-1.019,-0.098,0.087,2016-03-15 21:27:18.72,-4.939,-3.78,-2.073
1050,2016-03-15 21:27:17.95,-1.012,-0.103,0.1,2016-03-15 21:27:18.72,-6.829,-4.573,-2.073
1051,2016-03-15 21:27:17.95,-1.019,-0.093,0.089,2016-03-15 21:27:18.72,-6.524,-5.0,-2.317
1052,2016-03-15 21:27:17.95,-1.016,-0.094,0.09,2016-03-15 21:27:18.72,-6.524,-5.427,-2.683
1053,2016-03-15 21:27:17.95,-1.023,-0.108,0.093,2016-03-15 21:27:18.73,-4.634,-7.622,-2.744
1054,2016-03-15 21:27:17.95,-1.017,-0.113,0.094,2016-03-15 21:27:18.73,-3.902,-7.439,-2.805
1055,2016-03-15 21:27:17.95,-1.014,-0.099,0.096,2016-03-15 21:27:18.73,-2.561,-5.671,-2.317
1056,2016-03-15 21:27:17.95,-1.003,-0.104,0.106,2016-03-15 21:27:18.73,-1.28,-5.915,-2.256
1057,2016-03-15 21:27:17.95,-1.014,-0.119,0.121,2016-03-15 21:27:18.73,-0.122,-11.707,-2.378
1058,2016-03-15 21:27:17.95,-1.02,-0.124,0.13,2016-03-15 21:27:18.73,3.049,-8.963,-2.622
1059,2016-03-15 21:27:17.95,-1.014,-0.113,0.125,2016-03-15 21:27:18.73,-0.305,-5.488,-1.098
1060,2016-03-15 21:27:17.95,-1.004,-0.118,0.141,2016-03-15 21:27:18.73,0.366,-8.78,-0.732
1061,2016-03-15 21:27:17.95,-1.009,-0.118,0.173,2016-03-15 21:27:18.73,2.683,-7.012,-0.854
1062,2016-03-15 21:27:17.95,-1.015,-0.115,0.148,2016-03-15 21:27:18.73,4.878,-4.573,-1.22
1063,2016-03-15 21:27:17.95,-1.003,-0.109,0.153,2016-03-15 21:27:18.73,4.634,-4.024,-1.22
1064,2016-03-15 21:27:17.95,-1.004,-0.107,0.171,2016-03-15 21:27:18.73,4.512,-4.329,-1.524
1065,2016-03-15 21:27:17.95,-1.012,-0.113,0.171,2016-03-15 21:27:18.73,5.427,-3.354,-1.524
1066,2016-03-15 21:27:17.95,-1.004,-0.106,0.166,2016-03-15 21:27:18.73,5.061,-3.354,-1.402
1067,2016-03-15 21:27:17.95,-1.004,-0.109,0.175,2016-03-15 21:27:18.73,4.085,-1.159,-0.854
1068,2016-03-15 21:27:17.95,-1.0,-0.104,0.175,2016-03-15 21:27:18.73,2.195,0.671,-0.305
1069,2016-03-15 21:27:17.95,-0.997,-0.104,0.171,2016-03-15 21:27:18.73,1.89,2.256,-0.183
1070,2016-03-15 21:27:17.96,-1.001,-0.109,0.168,2016-03-15 21:27:18.73,2.317,2.927,0.061
1071,2016-03-15 21:27:17.96,-1.0,-0.108,0.174,2016-03-15 21:27:18.73,2.622,3.537,0.0
1072,2016-03-15 21:27:17.96,-1.002,-0.111,0.177,2016-03-15 21:27:18.73,1.585,2.805,0.122
1073,2016-03-15 21:27:17.96,-1.002,-0.11,0.183,2016-03-15 21:27:18.73,1.585,1.829,0.122
1074,2016-03-15 21:27:17.96,-1.005,-0.109,0.177,2016-03-15 21:27:18.73,1.829,-0.183,0.244
1075,2016-03-15 21:27:17.96,-1.006,-0.112,0.178,2016-03-15 21:27:18.73,3.171,-2.256,0.061
1076,2016-03-15 21:27:17.96,-1.01,-0.108,0.169,2016-03-15 21:27:18.73,2.927,5.671,0.305
1077,2016-03-15 21:27:17.96,-0.999,-0.106,0.157,2016-03-15 21:27:18.73,-0.427,2.744,1.524
1078,2016-03-15 21:27:17.96,-1.002,-0.107,0.188,2016-03-15 21:27:18.73,0.244,1.037,1.28
1079,2016-03-15 21:27:17.96,-1.012,-0.112,0.179,2016-03-15 21:27:18.73,1.28,3.841,1.159
1080,2016-03-15 21:27:17.96,-1.007,-0.102,0.152,2016-03-15 21:27:18.73,1.524,3.963,1.341
1081,2016-03-15 21:27:17.96,-1.002,-0.105,0.16,2016-03-15 21:27:18.73,1.22,2.5,1.463
1082,2016-03-15 21:27:17.96,-1.007,-0.106,0.162,2016-03-15 21:27:18.73,1.524,2.439,1.159
1083,2016-03-15 21:27:17.96,-1.009,-0.108,0.155,2016-03-15 21:27:18.73,0.976,2.805,1.28
1084,2016-03-15 21:27:17.96,-1.009,-0.104,0.16,2016-03-15 21:27:18.73,0.976,3.171,1.463
1085,2016-03-15 21:27:17.96,-1.008,-0.104,0.159,2016-03-15 21:27:18.73,-0.305,2.256,1.89
1086,2016-03-15 21:27:17.96,-1.009,-0.101,0.158,2016-03-15 21:27:18.73,-1.341,1.707,1.951
1087,2016-03-15 21:27:17.96,-1.011,-0.099,0.154,2016-03-15 21:27:18.73,-3.171,2.927,1.89
1088,2016-03-15 21:27:17.96,-1.009,-0.1,0.16,2016-03-15 21:27:18.73,-2.927,3.659,1.402
1089,2016-03-15 21:27:17.96,-1.012,-0.106,0.147,2016-03-15 21:27:18.73,-2.561,2.622,1.463
1090,2016-03-15 21:27:17.96,-1.01,-0.106,0.147,2016-03-15 21:27:18.73,-1.341,1.463,1.463
1091,2016-03-15 21:27:17.96,-1.015,-0.104,0.148,2016-03-15 21:27:18.73,-0.488,-0.061,1.951
1092,2016-03-15 21:27:17.96,-1.01,-0.101,0.136,2016-03-15 21:27:18.73,-0.549,-3.72,1.524
1093,2016-03-15 21:27:17.96,-1.01,-0.103,0.126,2016-03-15 21:27:18.73,-0.244,-0.244,1.341
1094,2016-03-15 21:27:17.96,-1.007,-0.103,0.139,2016-03-15 21:27:18.73,-8.72,2.378,2.866
1095,2016-03-15 21:27:17.96,-1.002,-0.088,0.153,2016-03-15 21:27:18.73,-11.28,4.817,3.11
1096,2016-03-15 21:27:17.96,-1.021,-0.086,0.119,2016-03-15 21:27:18.73,-10.183,1.402,1.829
1097,2016-03-15 21:27:17.96,-1.03,-0.082,0.116,2016-03-15 21:27:18.73,-10.305,-3.293,3.963
1098,2016-03-15 21:27:17.96,-1.02,-0.09,0.161,2016-03-15 21:27:18.73,-7.073,-6.89,4.512
1099,2016-03-15 21:27:17.96,-1.015,-0.105,0.133,2016-03-15 21:27:18.74,-8.11,-5.488,7.012
1100,2016-03-15 21:27:17.96,-0.997,-0.076,0.123,2016-03-15 21:27:18.74,-7.683,-7.988,7.378
1101,2016-03-15 21:27:17.96,-1.018,-0.098,0.165,2016-03-15 21:27:18.74,-0.915,-4.756,9.329
1102,2016-03-15 21:27:17.96,-1.008,-0.094,0.142,2016-03-15 21:27:18.74,1.402,-6.402,9.207
1103,2016-03-15 21:27:17.96,-1.019,-0.086,0.165,2016-03-15 21:27:18.74,7.073,-2.317,10.976
1104,2016-03-15 21:27:17.96,-1.005,-0.074,0.128,2016-03-15 21:27:18.74,2.927,-1.646,12.195
1105,2016-03-15 21:27:17.96,-1.009,-0.073,0.167,2016-03-15 21:27:18.74,-0.427,0.427,7.317
1106,2016-03-15 21:27:17.96,-1.026,-0.1,0.179,2016-03-15 21:27:18.74,-7.073,2.683,4.634
1107,2016-03-15 21:27:17.96,-0.995,-0.074,0.179,2016-03-15 21:27:18.74,-12.866,2.134,3.659
1108,2016-03-15 21:27:17.96,-1.003,-0.062,0.178,2016-03-15 21:27:18.74,-14.451,4.756,4.512
1109,2016-03-15 21:27:17.96,-0.999,-0.045,0.161,2016-03-15 21:27:18.74,-14.329,-0.732,5.122
1110,2016-03-15 21:27:17.96,-1.009,-0.074,0.167,2016-03-15 21:27:18.74,-15.0,2.439,6.463
1111,2016-03-15 21:27:17.96,-1.007,-0.067,0.184,2016-03-15 21:27:18.74,-10.976,3.171,2.988
1112,2016-03-15 21:27:17.96,-1.011,-0.045,0.204,2016-03-15 21:27:18.74,1.829,-2.439,-2.378
1113,2016-03-15 21:27:17.96,-1.02,-0.055,0.223,2016-03-15 21:27:18.74,5.671,5.183,3.963
1114,2016-03-15 21:27:17.96,-1.022,-0.006,0.183,2016-03-15 21:27:18.74,19.39,15.183,0.915
1115,2016-03-15 21:27:17.96,-1.001,0.023,0.121,2016-03-15 21:27:18.74,20.122,8.902,-2.012
1116,2016-03-15 21:27:17.96,-0.992,-0.075,0.157,2016-03-15 21:27:18.74,13.049,9.268,0.854
1117,2016-03-15 21:27:17.97,-1.008,-0.057,0.123,2016-03-15 21:27:18.74,1.28,15.0,5.061
1118,2016-03-15 21:27:17.97,-1.032,-0.008,0.072,2016-03-15 21:27:18.74,-9.451,13.11,3.841
1119,2016-03-15 21:27:17.97,-1.025,0.014,0.061,2016-03-15 21:27:18.74,-10.61,4.878,-2.927
1120,2016-03-15 21:27:17.97,-1.037,-0.035,0.099,2016-03-15 21:27:18.74,-13.293,-0.122,-4.39
1121,2016-03-15 21:27:17.97,-1.031,-0.043,0.125,2016-03-15 21:27:18.74,-18.232,-0.183,-0.915
1122,2016-03-15 21:27:17.97,-1.034,-0.008,0.109,2016-03-15 21:27:18.74,-16.646,0.366,1.098
1123,2016-03-15 21:27:17.97,-1.025,0.002,0.095,2016-03-15 21:27:18.74,-8.11,1.524,0.793
1124,2016-03-15 21:27:17.97,-1.023,0.004,0.089,2016-03-15 21:27:18.74,-6.037,-1.707,1.768
1125,2016-03-15 21:27:17.97,-1.012,0.02,0.072,2016-03-15 21:27:18.74,-1.22,-0.854,-2.927
1126,2016-03-15 21:27:17.97,-1.03,-0.017,0.057,2016-03-15 21:27:18.74,0.915,-1.585,-0.854
1127,2016-03-15 21:27:17.97,-1.027,-0.072,0.134,2016-03-15 21:27:18.74,4.085,-3.659,-0.488
1128,2016-03-15 21:27:17.97,-1.018,-0.068,0.098,2016-03-15 21:27:18.74,6.707,-1.098,-1.28
1129,2016-03-15 21:27:17.97,-0.996,-0.076,0.074,2016-03-15 21:27:18.74,7.866,1.646,0.122
1130,2016-03-15 21:27:17.97,-1.001,-0.056,0.085,2016-03-15 21:27:18.74,5.366,0.122,-0.854
1131,2016-03-15 21:27:17.97,-1.023,-0.03,0.099,2016-03-15 21:27:18.74,2.622,-2.134,-2.622
1132,2016-03-15 21:27:17.97,-1.032,-0.043,0.105,2016-03-15 21:27:18.74,0.366,-2.256,-1.951
1133,2016-03-15 21:27:17.97,-1.018,-0.044,0.105,2016-03-15 21:27:18.74,-0.122,-1.098,-0.732
1134,2016-03-15 21:27:17.97,-1.014,-0.044,0.101,2016-03-15 21:27:18.74,-0.488,0.122,0.366
1135,2016-03-15 21:27:17.97,-1.015,-0.045,0.093,2016-03-15 21:27:18.74,-2.683,2.866,2.927
1136,2016-03-15 21:27:17.97,-1.013,-0.042,0.09,2016-03-15 21:27:18.74,-0.793,2.134,1.646
1137,2016-03-15 21:27:17.97,-1.024,-0.038,0.094,2016-03-15 21:27:18.74,1.098,0.061,0.488
1138,2016-03-15 21:27:17.97,-1.029,-0.044,0.1,2016-03-15 21:27:18.74,2.439,-3.171,-0.976
1139,2016-03-15 21:27:17.97,-1.029,-0.051,0.105,2016-03-15 21:27:18.74,0.793,3.659,0.976
1140,2016-03-15 21:27:17.97,-1.011,-0.047,0.09,2016-03-15 21:27:18.74,-1.829,3.415,1.768
1141,2016-03-15 21:27:17.97,-1.013,-0.041,0.112,2016-03-15 21:27:18.74,-0.732,0.0,1.585
1142,2016-03-15 21:27:17.97,-1.027,-0.043,0.107,2016-03-15 21:27:18.74,-0.61,-2.561,0.244
1143,2016-03-15 21:27:17.97,-1.026,-0.038,0.094,2016-03-15 21:27:18.74,-1.463,-0.854,-1.098
1144,2016-03-15 21:27:17.97,-1.018,-0.032,0.089,2016-03-15 21:27:18.74,-2.256,0.366,-1.037
1145,2016-03-15 21:27:17.97,-1.016,-0.03,0.092,2016-03-15 21:27:18.74,-2.5,0.244,-0.671
1146,2016-03-15 21:27:17.97,-1.02,-0.037,0.104,2016-03-15 21:27:18.75,-1.768,-1.585,-0.244
1147,2016-03-15 21:27:17.97,-1.024,-0.041,0.111,2016-03-15 21:27:18.75,-2.012,-0.976,0.061
1148,2016-03-15 21:27:17.97,-1.023,-0.041,0.104,2016-03-15 21:27:18.75,-3.659,3.293,-0.183
1149,2016-03-15 21:27:17.97,-1.02,-0.045,0.099,2016-03-15 21:27:18.75,-0.854,1.22,-0.366
1150,2016-03-15 21:27:17.97,-1.012,-0.045,0.085,2016-03-15 21:27:18.75,-0.366,-1.829,-0.244
1151,2016-03-15 21:27:17.97,-1.022,-0.047,0.096,2016-03-15 21:27:18.75,-0.183,-3.598,-0.122
1152,2016-03-15 21:27:17.97,-1.025,-0.047,0.102,2016-03-15 21:27:18.75,1.159,-3.598,-0.122
1153,2016-03-15 21:27:17.97,-1.023,-0.047,0.098,2016-03-15 21:27:18.75,1.402,-7.134,-0.122
1154,2016-03-15 21:27:17.97,-1.021,-0.053,0.107,2016-03-15 21:27:18.75,2.805,-9.268,0.061
1155,2016-03-15 21:27:17.97,-1.017,-0.056,0.104,2016-03-15 21:27:18.75,0.61,-3.415,2.439
1156,2016-03-15 21:27:17.97,-1.008,-0.06,0.099,2016-03-15 21:27:18.75,0.671,-1.037,2.378
1157,2016-03-15 21:27:17.97,-1.011,-0.068,0.119,2016-03-15 21:27:18.75,1.829,-2.195,2.927
1158,2016-03-15 21:27:17.97,-1.026,-0.057,0.132,2016-03-15 21:27:18.75,1.951,-5.244,4.085
1159,2016-03-15 21:27:17.97,-1.025,-0.036,0.118,2016-03-15 21:27:18.75,-0.244,-6.341,4.695
1160,2016-03-15 21:27:17.97,-1.022,-0.024,0.109,2016-03-15 21:27:18.75,-2.134,-7.256,5.549
1161,2016-03-15 21:27:17.97,-1.024,-0.02,0.119,2016-03-15 21:27:18.75,-0.915,-5.976,6.037
1162,2016-03-15 21:27:17.97,-1.025,-0.026,0.139,2016-03-15 21:27:18.75,1.829,-4.756,7.012
1163,2016-03-15 21:27:17.97,-1.023,-0.037,0.144,2016-03-15 21:27:18.75,1.89,-4.817,7.866
1164,2016-03-15 21:27:17.98,-1.017,-0.034,0.135,2016-03-15 21:27:18.75,1.098,-5.122,6.463
1165,2016-03-15 21:27:17.98,-1.009,-0.022,0.142,2016-03-15 21:27:18.75,1.524,-4.024,4.817
1166,2016-03-15 21:27:17.98,-1.022,-0.011,0.149,2016-03-15 21:27:18.75,3.537,-0.915,4.024
1167,2016-03-15 21:27:17.98,-1.007,-0.02,0.156,2016-03-15 21:27:18.75,4.939,0.244,4.634
1168,2016-03-15 21:27:17.98,-1.023,-0.009,0.152,2016-03-15 21:27:18.75,6.89,5.061,3.963
1169,2016-03-15 21:27:17.98,-1.025,-0.01,0.14,2016-03-15 21:27:18.75,3.841,6.28,2.866
1170,2016-03-15 21:27:17.98,-1.007,-0.012,0.159,2016-03-15 21:27:18.75,8.78,8.78,1.768
1171,2016-03-15 21:27:17.98,-1.019,-0.012,0.134,2016-03-15 21:27:18.75,13.232,24.573,2.195
1172,2016-03-15 21:27:17.98,-1.019,-0.002,0.107,2016-03-15 21:27:18.75,10.976,16.646,2.134
1173,2016-03-15 21:27:17.98,-1.015,-0.015,0.183,2016-03-15 21:27:18.75,11.341,-3.354,2.927
1174,2016-03-15 21:27:17.98,-1.028,-0.006,0.146,2016-03-15 21:27:18.75,9.268,-3.72,4.024
1175,2016-03-15 21:27:17.98,-1.002,0.017,0.097,2016-03-15 21:27:18.75,1.402,0.366,4.085
1176,2016-03-15 21:27:17.98,-1.001,0.025,0.115,2016-03-15 21:27:18.75,-2.5,0.793,3.354
1177,2016-03-15 21:27:17.98,-1.017,0.042,0.105,2016-03-15 21:27:18.75,-3.72,-1.707,4.146
1178,2016-03-15 21:27:17.98,-1.026,0.038,0.134,2016-03-15 21:27:18.75,-0.122,-4.39,6.768
1179,2016-03-15 21:27:17.98,-1.043,0.033,0.13,2016-03-15 21:27:18.75,1.646,-3.659,8.476
1180,2016-03-15 21:27:17.98,-1.021,0.03,0.134,2016-03-15 21:27:18.75,1.646,-0.061,5.976
1181,2016-03-15 21:27:17.98,-0.99,0.033,0.132,2016-03-15 21:27:18.75,3.902,-0.671,6.463
1182,2016-03-15 21:27:17.98,-1.024,0.038,0.16,2016-03-15 21:27:18.75,10.793,-5.61,8.415
1183,2016-03-15 21:27:17.98,-1.069,0.031,0.141,2016-03-15 21:27:18.75,2.378,-0.366,9.573
1184,2016-03-15 21:27:17.98,-0.981,0.037,0.137,2016-03-15 21:27:18.75,-3.598,-2.988,5.915
1185,2016-03-15 21:27:17.98,-0.987,0.033,0.134,2016-03-15 21:27:18.75,-6.22,-2.073,2.988
1186,2016-03-15 21:27:17.98,-0.986,0.037,0.115,2016-03-15 21:27:18.75,-6.768,0.671,1.098
1187,2016-03-15 21:27:17.98,-0.996,0.024,0.123,2016-03-15 21:27:18.75,-3.476,-1.098,-1.098
1188,2016-03-15 21:27:17.98,-1.012,0.029,0.139,2016-03-15 21:27:18.76,-1.89,6.829,-0.976
1189,2016-03-15 21:27:17.98,-1.017,0.051,0.127,2016-03-15 21:27:18.76,1.585,-1.707,-0.244
1190,2016-03-15 21:27:17.98,-1.032,0.057,0.178,2016-03-15 21:27:18.76,1.646,3.049,-0.549
1191,2016-03-15 21:27:17.98,-1.021,0.062,0.143,2016-03-15 21:27:18.76,0.671,8.354,-0.061
1192,2016-03-15 21:27:17.98,-1.015,0.077,0.12,2016-03-15 21:27:18.76,0.183,11.951,0.061
1193,2016-03-15 21:27:17.98,-1.015,0.073,0.125,2016-03-15 21:27:18.76,0.061,14.634,0.244
1194,2016-03-15 21:27:17.98,-1.019,0.067,0.117,2016-03-15 21:27:18.76,0.305,8.72,0.183
1195,2016-03-15 21:27:17.98,-1.007,0.048,0.123,2016-03-15 21:27:18.76,0.305,1.037,-0.488
1196,2016-03-15 21:27:17.98,-1.027,0.046,0.092,2016-03-15 21:27:18.76,-1.28,0.061,-0.305
1197,2016-03-15 21:27:17.98,-1.018,0.065,0.083,2016-03-15 21:27:18.76,-3.049,-0.61,0.061
1198,2016-03-15 21:27:17.98,-1.01,0.062,0.092,2016-03-15 21:27:18.76,-2.805,-1.402,0.061
1199,2016-03-15 21:27:17.98,-1.005,0.053,0.083,2016-03-15 21:27:18.76,-2.561,-1.768,0.122
1200,2016-03-15 21:27:17.98,-1.013,0.044,0.093,2016-03-15 21:27:18.76,-1.22,-1.463,-0.183
1201,2016-03-15 21:27:17.98,-1.014,0.048,0.084,2016-03-15 21:27:18.76,-0.061,-2.256,0.671
1202,2016-03-15 21:27:17.98,-1.018,0.045,0.101,2016-03-15 21:27:18.76,-0.427,1.463,1.159
1203,2016-03-15 21:27:17.98,-1.018,0.043,0.086,2016-03-15 21:27:18.76,-3.963,6.28,1.098
1204,2016-03-15 21:27:17.98,-1.011,0.035,0.088,2016-03-15 21:27:18.76,-2.195,10.549,-0.61
1205,2016-03-15 21:27:17.98,-1.023,0.03,0.063,2016-03-15 21:27:18.76,-2.317,19.573,-1.524
1206,2016-03-15 21:27:17.98,-1.013,0.039,0.091,2016-03-15 21:27:18.76,-1.402,7.012,-0.671
1207,2016-03-15 21:27:17.98,-1.036,0.041,0.114,2016-03-15 21:27:18.76,-1.28,3.049,0.427
1208,2016-03-15 21:27:17.98,-1.017,0.04,0.084,2016-03-15 21:27:18.76,3.232,4.085,0.549
1209,2016-03-15 21:27:17.98,-1.024,0.042,0.06,2016-03-15 21:27:18.76,3.537,-6.463,0.549
1210,2016-03-15 21:27:17.99,-1.027,0.049,0.118,2016-03-15 21:27:18.76,12.317,-13.902,1.524
1211,2016-03-15 21:27:17.99,-1.027,0.076,0.135,2016-03-15 21:27:18.76,-19.39,-19.939,14.451
1212,2016-03-15 21:27:17.99,-1.013,0.07,0.407,2016-03-15 21:27:18.76,-15.854,64.878,15.915
1213,2016-03-15 21:27:17.99,-0.794,0.07,-0.355,2016-03-15 21:27:18.76,5.793,-20.976,9.573
1214,2016-03-15 21:27:17.99,-1.196,0.058,0.072,2016-03-15 21:27:18.76,15.122,-18.902,4.634
1215,2016-03-15 21:27:17.99,-1.062,0.071,0.105,2016-03-15 21:27:18.76,14.695,-2.988,0.976
1216,2016-03-15 21:27:17.99,-1.011,0.062,0.029,2016-03-15 21:27:18.76,8.902,-4.024,-1.768
1217,2016-03-15 21:27:17.99,-0.998,0.054,0.073,2016-03-15 21:27:18.76,1.707,-7.439,-3.293
1218,2016-03-15 21:27:17.99,-0.978,0.055,0.099,2016-03-15 21:27:18.76,-1.159,-5.427,-3.537
1219,2016-03-15 21:27:17.99,-1.026,0.072,0.09,2016-03-15 21:27:18.76,-3.049,-7.439,-2.317
1220,2016-03-15 21:27:17.99,-1.051,0.073,0.086,2016-03-15 21:27:18.76,-1.707,4.024,-0.366
1221,2016-03-15 21:27:17.99,-1.025,0.08,0.078,2016-03-15 21:27:18.76,0.488,14.146,1.768
1222,2016-03-15 21:27:17.99,-1.015,0.083,0.115,2016-03-15 21:27:18.76,2.744,18.659,1.524
1223,2016-03-15 21:27:17.99,-1.045,0.075,0.106,2016-03-15 21:27:18.76,2.195,5.549,1.341
1224,2016-03-15 21:27:17.99,-1.045,0.065,0.131,2016-03-15 21:27:18.76,1.951,5.122,1.829
1225,2016-03-15 21:27:17.99,-1.021,0.073,0.076,2016-03-15 21:27:18.76,2.134,6.524,1.28
1226,2016-03-15 21:27:17.99,-1.018,0.072,0.046,2016-03-15 21:27:18.76,-1.585,2.561,0.061
1227,2016-03-15 21:27:17.99,-1.021,0.074,0.058,2016-03-15 21:27:18.76,-0.793,1.463,-0.793
1228,2016-03-15 21:27:17.99,-1.013,0.071,0.051,2016-03-15 21:27:18.76,-0.915,0.0,-0.488
1229,2016-03-15 21:27:17.99,-1.028,0.069,0.058,2016-03-15 21:27:18.76,-0.183,0.793,-0.244
1230,2016-03-15 21:27:17.99,-1.023,0.074,0.06,2016-03-15 21:27:18.76,-0.732,-1.22,-1.159
1231,2016-03-15 21:27:17.99,-1.023,0.072,0.058,2016-03-15 21:27:18.76,-0.488,-1.829,-0.976
1232,2016-03-15 21:27:17.99,-1.026,0.08,0.054,2016-03-15 21:27:18.76,0.183,-1.402,-0.427
1233,2016-03-15 21:27:17.99,-1.019,0.082,0.05,2016-03-15 21:27:18.76,0.976,-3.171,-0.488
1234,2016-03-15 21:27:17.99,-1.027,0.074,0.057,2016-03-15 21:27:18.76,2.195,-3.598,0.244
1235,2016-03-15 21:27:17.99,-1.017,0.068,0.052,2016-03-15 21:27:18.77,-2.5,-0.854,0.915
1236,2016-03-15 21:27:17.99,-1.017,0.067,0.056,2016-03-15 21:27:18.77,-1.098,-1.402,0.0
1237,2016-03-15 21:27:17.99,-1.013,0.071,0.037,2016-03-15 21:27:18.77,-2.439,-9.39,0.244
1238,2016-03-15 21:27:17.99,-0.999,0.074,0.07,2016-03-15 21:27:18.77,-1.768,-5.61,-0.549
1239,2016-03-15 21:27:17.99,-1.006,0.072,0.063,2016-03-15 21:27:18.77,-3.232,14.878,-1.585
1240,2016-03-15 21:27:17.99,-1.005,0.066,0.045,2016-03-15 21:27:18.77,2.927,7.805,-2.134
1241,2016-03-15 21:27:17.99,-1.022,0.064,0.067,2016-03-15 21:27:18.77,1.159,-18.902,5.488
1242,2016-03-15 21:27:17.99,-1.02,0.079,0.275,2016-03-15 21:27:18.77,4.146,45.305,6.585
1243,2016-03-15 21:27:17.99,-0.902,0.047,-0.209,2016-03-15 21:27:18.77,-12.561,46.037,7.317
1244,2016-03-15 21:27:17.99,-0.903,0.069,0.019,2016-03-15 21:27:18.77,13.963,-51.707,4.634
1245,2016-03-15 21:27:17.99,-1.285,0.073,0.133,2016-03-15 21:27:18.77,9.512,12.927,-1.768
1246,2016-03-15 21:27:17.99,-0.966,0.091,0.036,2016-03-15 21:27:18.77,10.915,-9.207,-6.28
1247,2016-03-15 21:27:17.99,-1.059,0.055,0.073,2016-03-15 21:27:18.77,2.988,-6.159,-13.171
1248,2016-03-15 21:27:17.99,-0.975,0.055,0.105,2016-03-15 21:27:18.77,2.805,-3.78,-9.207
1249,2016-03-15 21:27:17.99,-1.028,0.058,0.076,2016-03-15 21:27:18.77,0.793,-11.646,-6.159
1250,2016-03-15 21:27:17.99,-1.058,0.063,0.043,2016-03-15 21:27:18.77,-3.354,-3.78,-6.951
1251,2016-03-15 21:27:17.99,-1.0,0.014,0.094,2016-03-15 21:27:18.77,1.098,8.659,-7.744
1252,2016-03-15 21:27:17.99,-1.0,0.022,0.059,2016-03-15 21:27:18.77,-6.402,9.512,-9.756
1253,2016-03-15 21:27:17.99,-0.993,-0.001,0.078,2016-03-15 21:27:18.77,-3.902,13.171,-5.244
1254,2016-03-15 21:27:17.99,-1.039,0.023,0.047,2016-03-15 21:27:18.77,-3.841,14.024,-4.573
1255,2016-03-15 21:27:17.99,-1.046,0.044,0.016,2016-03-15 21:27:18.77,-6.585,12.744,-3.171
1256,2016-03-15 21:27:17.99,-0.997,0.064,0.017,2016-03-15 21:27:18.77,-15.915,8.476,-2.012
1257,2016-03-15 21:27:17.00,-1.078,0.067,0.048,2016-03-15 21:27:18.77,-18.11,-0.061,-0.793
1258,2016-03-15 21:27:17.00,-1.044,0.036,0.005,2016-03-15 21:27:18.77,-13.72,2.683,-2.256
1259,2016-03-15 21:27:17.00,-1.008,0.013,-0.053,2016-03-15 21:27:18.77,-11.829,4.573,-5.122
1260,2016-03-15 21:27:17.00,-1.039,0.023,-0.011,2016-03-15 21:27:18.77,-9.329,1.951,-5.549
1261,2016-03-15 21:27:17.00,-1.003,0.009,0.007,2016-03-15 21:27:18.77,-6.341,3.72,-5.549
1262,2016-03-15 21:27:17.00,-1.037,0.006,-0.009,2016-03-15 21:27:18.77,-2.195,-9.085,-6.585
1263,2016-03-15 21:27:17.00,-1.041,-0.021,0.017,2016-03-15 21:27:18.77,-4.146,-11.829,-8.354
1264,2016-03-15 21:27:17.00,-1.01,-0.062,0.002,2016-03-15 21:27:18.77,-2.134,-4.939,-2.378
1265,2016-03-15 21:27:17.00,-1.045,-0.065,-0.001,2016-03-15 21:27:18.77,-0.244,0.244,4.207
1266,2016-03-15 21:27:17.00,-1.016,-0.055,0.023,2016-03-15 21:27:18.77,8.78,4.634,1.098
1267,2016-03-15 21:27:17.00,-0.976,-0.029,0.008,2016-03-15 21:27:18.77,23.598,4.573,-2.5
1268,2016-03-15 21:27:17.00,-1.021,-0.027,0.038,2016-03-15 21:27:18.77,26.524,0.915,0.732
1269,2016-03-15 21:27:17.00,-1.043,-0.006,0.025,2016-03-15 21:27:18.77,29.817,-0.854,2.195
1270,2016-03-15 21:27:17.00,-1.029,-0.017,0.003,2016-03-15 21:27:18.77,21.89,1.402,1.037
1271,2016-03-15 21:27:17.00,-1.016,-0.028,0.017,2016-03-15 21:27:18.77,8.049,-1.89,-1.341
1272,2016-03-15 21:27:17.00,-1.003,-0.041,0.024,2016-03-15 21:27:18.77,-2.927,-4.756,-1.159
1273,2016-03-15 21:27:17.00,-1.043,-0.025,0.018,2016-03-15 21:27:18.77,-12.317,-6.098,1.341
1274,2016-03-15 21:27:17.00,-1.06,-0.025,0.018,2016-03-15 21:27:18.77,-15.366,-7.195,2.866
1275,2016-03-15 21:27:17.00,-1.044,-0.02,0.01,2016-03-15 21:27:18.77,-13.293,-7.012,2.744
1276,2016-03-15 21:27:18.00,-1.017,-0.024,0.018,2016-03-15 21:27:18.77,-11.463,-9.207,1.707
1277,2016-03-15 21:27:18.00,-1.019,-0.036,0.031,2016-03-15 21:27:18.77,-9.695,1.524,0.671
1278,2016-03-15 21:27:18.00,-1.006,-0.019,0.018,2016-03-15 21:27:18.77,-8.659,3.476,0.488
1279,2016-03-15 21:27:18.00,-1.02,-0.028,0.029,2016-03-15 21:27:18.77,-3.415,6.037,0.976
1280,2016-03-15 21:27:18.00,-1.019,-0.042,0.03,2016-03-15 21:27:18.77,3.659,3.841,0.183
1281,2016-03-15 21:27:18.00,-1.014,-0.053,0.034,2016-03-15 21:27:18.78,7.317,1.037,0.61
1282,2016-03-15 21:27:18.00,-1.031,-0.034,0.031,2016-03-15 21:27:18.78,7.744,3.659,2.439
1283,2016-03-15 21:27:18.00,-1.032,-0.028,0.021,2016-03-15 21:27:18.78,7.683,2.866,2.134
1284,2016-03-15 21:27:18.00,-1.025,-0.04,0.031,2016-03-15 21:27:18.78,7.5,-1.646,1.28
1285,2016-03-15 21:27:18.00,-1.025,-0.027,0.033,2016-03-15 21:27:18.78,6.28,-3.598,1.22
1286,2016-03-15 21:27:18.00,-1.021,-0.013,0.036,2016-03-15 21:27:18.78,2.927,-1.829,1.89
1287,2016-03-15 21:27:18.00,-1.015,-0.003,0.023,2016-03-15 21:27:18.78,-0.732,-1.524,3.293
1288,2016-03-15 21:27:18.00,-1.039,0.003,0.033,2016-03-15 21:27:18.78,-2.866,-1.89,2.805
1289,2016-03-15 21:27:18.00,-1.017,-0.002,0.035,2016-03-15 21:27:18.78,-0.61,-2.5,1.768
1290,2016-03-15 21:27:18.00,-1.023,-0.009,0.031,2016-03-15 21:27:18.78,0.854,0.427,0.854
1291,2016-03-15 21:27:18.00,-1.019,-0.014,0.019,2016-03-15 21:27:18.78,-0.366,-2.073,-0.427
1292,2016-03-15 21:27:18.00,-1.025,-0.022,0.043,2016-03-15 21:27:18.78,-0.488,-3.232,-1.646
1293,2016-03-15 21:27:18.00,-1.034,-0.014,0.033,2016-03-15 21:27:18.78,-2.805,-2.073,0.488
1294,2016-03-15 21:27:18.00,-1.03,-0.006,0.05,2016-03-15 21:27:18.78,-4.207,-0.915,1.524
1295,2016-03-15 21:27:18.00,-1.031,-0.012,0.055,2016-03-15 21:27:18.78,-5.0,-0.549,1.341
1296,2016-03-15 21:27:18.00,-1.03,-0.018,0.066,2016-03-15 21:27:18.78,-2.5,0.427,0.61
1297,2016-03-15 21:27:18.00,-1.021,-0.018,0.05,2016-03-15 21:27:18.78,-0.61,3.476,1.463
1298,2016-03-15 21:27:18.00,-1.011,-0.017,0.041,2016-03-15 21:27:18.78,0.061,3.598,1.22
1299,2016-03-15 21:27:18.00,-1.017,-0.028,0.029,2016-03-15 21:27:18.78,1.463,2.866,0.122
1300,2016-03-15 21:27:18.01,-1.022,-0.023,0.031,2016-03-15 21:27:18.78,0.61,2.073,-1.951
1301,2016-03-15 21:27:18.01,-1.014,-0.027,0.043,2016-03-15 21:27:18.78,0.671,3.537,-3.537
1302,2016-03-15 21:27:18.01,-1.013,-0.02,0.042,2016-03-15 21:27:18.78,1.28,2.988,-3.659
1303,2016-03-15 21:27:18.01,-1.023,-0.007,0.039,2016-03-15 21:27:18.78,-0.183,0.061,-2.988
1304,2016-03-15 21:27:18.01,-1.041,-0.002,0.039,2016-03-15 21:27:18.78,-2.866,-2.5,-1.402
1305,2016-03-15 21:27:18.01,-1.043,0.003,0.029,2016-03-15 21:27:18.78,-7.378,-0.244,2.195
1306,2016-03-15 21:27:18.01,-1.022,-0.002,0.0,2016-03-15 21:27:18.78,-13.049,-1.098,3.902
1307,2016-03-15 21:27:18.01,-0.993,-0.021,0.019,2016-03-15 21:27:18.78,-12.744,-4.39,1.829
1308,2016-03-15 21:27:18.01,-1.037,-0.006,0.009,2016-03-15 21:27:18.78,-12.683,-2.622,1.402
1309,2016-03-15 21:27:18.01,-1.048,0.015,0.021,2016-03-15 21:27:18.78,-11.098,-2.622,0.427
1310,2016-03-15 21:27:18.01,-1.032,0.007,0.032,2016-03-15 21:27:18.78,-3.659,-4.573,-0.244
1311,2016-03-15 21:27:18.01,-1.029,-0.018,0.037,2016-03-15 21:27:18.78,8.902,-1.159,0.061
1312,2016-03-15 21:27:18.01,-1.031,-0.029,0.034,2016-03-15 21:27:18.78,15.488,1.159,-0.732
1313,2016-03-15 21:27:18.01,-1.018,-0.047,0.06,2016-03-15 21:27:18.78,13.354,3.232,-2.805
1314,2016-03-15 21:27:18.01,-1.021,-0.025,0.06,2016-03-15 21:27:18.78,5.0,2.744,-5.793
1315,2016-03-15 21:27:18.01,-1.01,-0.026,0.063,2016-03-15 21:27:18.78,-1.768,1.951,-8.415
1316,2016-03-15 21:27:18.01,-1.001,-0.034,0.038,2016-03-15 21:27:18.78,-5.915,-0.427,-10.427
1317,2016-03-15 21:27:18.01,-1.021,-0.054,0.041,2016-03-15 21:27:18.78,-3.598,1.707,-7.866
1318,2016-03-15 21:27:18.01,-1.03,-0.065,0.038,2016-03-15 21:27:18.78,-0.915,4.39,-2.195
1319,2016-03-15 21:27:18.01,-1.037,-0.046,0.035,2016-03-15 21:27:18.78,-0.61,7.256,0.549
1320,2016-03-15 21:27:18.01,-1.02,-0.055,0.042,2016-03-15 21:27:18.78,0.305,5.915,3.171
1321,2016-03-15 21:27:18.01,-0.995,-0.091,0.038,2016-03-15 21:27:18.78,4.451,4.939,2.866
1322,2016-03-15 21:27:18.01,-1.017,-0.098,0.025,2016-03-15 21:27:18.78,5.793,0.061,2.622
1323,2016-03-15 21:27:18.01,-1.036,-0.078,0.025,2016-03-15 21:27:18.78,6.098,0.793,3.171
1324,2016-03-15 21:27:18.01,-1.027,-0.056,0.023,2016-03-15 21:27:18.78,3.476,-0.061,3.354
1325,2016-03-15 21:27:18.01,-1.032,-0.042,0.02,2016-03-15 21:27:18.78,1.463,0.244,3.902
1326,2016-03-15 21:27:18.01,-1.024,-0.035,0.032,2016-03-15 21:27:18.79,1.098,3.354,6.707
1327,2016-03-15 21:27:18.01,-1.027,-0.021,0.041,2016-03-15 21:27:18.79,-4.512,5.671,9.878
1328,2016-03-15 21:27:18.01,-0.99,-0.035,0.035,2016-03-15 21:27:18.79,-8.841,10.061,3.11
