,id,SENSOR_TYPE,ACCELEROMETER_X,ACCELEROMETER_Y,ACCELEROMETER_Z,X_AXIS,Y_AXIS,Z_AXIS,LINEAR_ACCELERATION_X,LINEAR_ACCELERATION_Y,LINEAR_ACCELERATION_Z,GYROSCOPE_X,GYROSCOPE_Y,GYROSCOPE_Z,ORIENTATION_Z,ORIENTATION_X,ORIENTATION_Y,Time_since_start,state,timestamp,prediction,experiment_id
578729,587606,Accelerometer,,,,-0.6,0.536,-0.699,,,,,,,,,,0.0,,2016-05-01 12:52:52.142,,263
578730,587607,Accelerometer,,,,-0.603,0.289,-0.937,,,,,,,,,,0.04,,2016-05-01 12:52:52.142,,263
578731,587608,Accelerometer,,,,-0.51,0.367,-1.08,,,,,,,,,,0.08,,2016-05-01 12:52:52.142,,263
578732,587609,Accelerometer,,,,-0.74,0.543,-0.719,,,,,,,,,,0.12,,2016-05-01 12:52:52.142,,263
578733,587610,Accelerometer,,,,-0.602,0.312,-0.684,,,,,,,,,,0.16,,2016-05-01 12:52:52.143,,263
578734,587611,Accelerometer,,,,-0.509,0.211,-0.534,,,,,,,,,,0.2,,2016-05-01 12:52:52.143,,263
578735,587612,Accelerometer,,,,-0.347,0.271,-0.694,,,,,,,,,,0.24,,2016-05-01 12:52:52.143,,263
578736,587613,Accelerometer,,,,-0.604,0.003,-0.668,,,,,,,,,,0.28,,2016-05-01 12:52:52.143,,263
578737,587614,Accelerometer,,,,-0.492,0.222,-0.625,,,,,,,,,,0.32,,2016-05-01 12:52:52.144,,263
578738,587615,Accelerometer,,,,-0.291,0.402,-1.024,,,,,,,,,,0.36,,2016-05-01 12:52:52.144,,263
578739,587616,Accelerometer,,,,-0.831,0.001,-1.09,,,,,,,,,,0.4,,2016-05-01 12:52:52.144,,263
578740,587617,Accelerometer,,,,-0.335,0.088,-1.106,,,,,,,,,,0.44,,2016-05-01 12:52:52.145,,263
578741,587618,Accelerometer,,,,-0.037,-0.043,-0.983,,,,,,,,,,0.48,,2016-05-01 12:52:52.145,,263
578742,587619,Accelerometer,,,,-0.101,-0.536,-0.838,,,,,,,,,,0.52,,2016-05-01 12:52:52.145,,263
578743,587620,Accelerometer,,,,-0.273,-0.192,-1.259,,,,,,,,,,0.56,,2016-05-01 12:52:52.145,,263
578744,587621,Accelerometer,,,,-0.465,0.365,-1.326,,,,,,,,,,0.6,,2016-05-01 12:52:52.145,,263
578745,587622,Accelerometer,,,,-0.743,0.249,-0.549,,,,,,,,,,0.64,,2016-05-01 12:52:52.146,,263
578746,587623,Accelerometer,,,,-0.754,-0.07,-0.467,,,,,,,,,,0.68,,2016-05-01 12:52:52.146,,263
578747,587624,Accelerometer,,,,-0.433,-0.098,-1.028,,,,,,,,,,0.72,,2016-05-01 12:52:52.146,,263
578748,587625,Accelerometer,,,,-0.389,0.282,-1.193,,,,,,,,,,0.76,,2016-05-01 12:52:52.147,,263
578749,587626,Accelerometer,,,,-0.846,0.434,-1.109,,,,,,,,,,0.8,,2016-05-01 12:52:52.147,,263
578750,587627,Accelerometer,,,,-1.131,0.44,-0.772,,,,,,,,,,0.84,,2016-05-01 12:52:52.147,,263
578751,587628,Accelerometer,,,,-0.725,0.175,-0.831,,,,,,,,,,0.88,,2016-05-01 12:52:52.148,,263
578752,587629,Accelerometer,,,,-0.882,0.336,-0.751,,,,,,,,,,0.92,,2016-05-01 12:52:52.149,,263
578753,587630,Accelerometer,,,,-0.813,0.611,-0.738,,,,,,,,,,0.96,,2016-05-01 12:52:52.149,,263
578754,587631,Accelerometer,,,,-0.82,0.386,-0.74,,,,,,,,,,1.0,,2016-05-01 12:52:52.149,,263
578755,587632,Accelerometer,,,,-0.984,0.182,-0.726,,,,,,,,,,1.04,,2016-05-01 12:52:52.152,,263
578756,587633,Accelerometer,,,,-1.023,0.18,-0.556,,,,,,,,,,1.08,,2016-05-01 12:52:52.152,,263
578757,587634,Accelerometer,,,,-0.949,0.188,-0.441,,,,,,,,,,1.12,,2016-05-01 12:52:52.152,,263
578758,587635,Accelerometer,,,,-0.845,0.114,-0.33,,,,,,,,,,1.16,,2016-05-01 12:52:52.153,,263
578759,587636,Accelerometer,,,,-0.869,0.103,-0.244,,,,,,,,,,1.2,,2016-05-01 12:52:52.153,,263
578760,587637,Accelerometer,,,,-0.897,0.05,-0.3,,,,,,,,,,1.24,,2016-05-01 12:52:52.153,,263
578761,587638,Accelerometer,,,,-0.926,0.053,-0.327,,,,,,,,,,1.28,,2016-05-01 12:52:52.154,,263
578762,587639,Accelerometer,,,,-0.848,0.04,-0.222,,,,,,,,,,1.32,,2016-05-01 12:52:52.154,,263
578763,587640,Accelerometer,,,,-0.883,0.031,-0.091,,,,,,,,,,1.36,,2016-05-01 12:52:52.154,,263
578764,587641,Accelerometer,,,,-0.953,0.003,-0.066,,,,,,,,,,1.4,,2016-05-01 12:52:52.155,,263
578765,587642,Accelerometer,,,,-0.842,-0.031,-0.085,,,,,,,,,,1.44,,2016-05-01 12:52:52.155,,263
578766,587643,Accelerometer,,,,-0.785,-0.053,-0.049,,,,,,,,,,1.48,,2016-05-01 12:52:52.155,,263
578767,587644,Accelerometer,,,,-0.849,-0.017,-0.039,,,,,,,,,,1.52,,2016-05-01 12:52:52.156,,263
578768,587645,Accelerometer,,,,-0.92,-0.049,-0.052,,,,,,,,,,1.56,,2016-05-01 12:52:52.156,,263
578769,587646,Accelerometer,,,,-1.001,-0.022,-0.071,,,,,,,,,,1.6,,2016-05-01 12:52:52.156,,263
578770,587647,Accelerometer,,,,-1.129,-0.008,-0.026,,,,,,,,,,1.64,,2016-05-01 12:52:52.157,,263
578771,587648,Accelerometer,,,,-1.188,0.009,0.075,,,,,,,,,,1.68,,2016-05-01 12:52:52.157,,263
578772,587649,Accelerometer,,,,-1.113,-0.004,0.014,,,,,,,,,,1.72,,2016-05-01 12:52:52.157,,263
578773,587650,Accelerometer,,,,-1.079,-0.013,0.016,,,,,,,,,,1.76,,2016-05-01 12:52:52.158,,263
578774,587651,Accelerometer,,,,-1.048,-0.013,0.001,,,,,,,,,,1.8,,2016-05-01 12:52:52.158,,263
578775,587652,Accelerometer,,,,-1.116,0.008,-0.018,,,,,,,,,,1.84,,2016-05-01 12:52:52.158,,263
578776,587653,Accelerometer,,,,-1.126,0.008,0.009,,,,,,,,,,1.88,,2016-05-01 12:52:52.159,,263
578777,587654,Accelerometer,,,,-1.124,-0.01,0.009,,,,,,,,,,1.92,,2016-05-01 12:52:52.159,,263
578778,587655,Accelerometer,,,,-1.09,0.002,0.042,,,,,,,,,,1.96,,2016-05-01 12:52:52.160,,263
578779,587656,Accelerometer,,,,-1.074,0.018,0.042,,,,,,,,,,2.0,,2016-05-01 12:52:52.160,,263
578780,587657,Accelerometer,,,,-1.083,0.02,0.016,,,,,,,,,,2.04,,2016-05-01 12:52:52.160,,263
578781,587658,Gyro,,,,-81.402,81.402,-3.171,,,,,,,,,,0.0,,2016-05-01 12:52:52.163,,263
578782,587659,Gyro,,,,-81.463,75.244,-2.561,,,,,,,,,,0.04,,2016-05-01 12:52:52.163,,263
578783,587660,Gyro,,,,-97.256,69.268,-0.427,,,,,,,,,,0.08,,2016-05-01 12:52:52.164,,263
578784,587661,Gyro,,,,-69.573,102.073,7.683,,,,,,,,,,0.12,,2016-05-01 12:52:52.164,,263
578785,587662,Gyro,,,,-81.341,40.61,10.183,,,,,,,,,,0.16,,2016-05-01 12:52:52.164,,263
578786,587663,Gyro,,,,-125.976,6.098,9.329,,,,,,,,,,0.2,,2016-05-01 12:52:52.165,,263
578787,587664,Gyro,,,,-22.195,69.512,4.268,,,,,,,,,,0.24,,2016-05-01 12:52:52.165,,263
578788,587665,Gyro,,,,-21.768,22.866,21.707,,,,,,,,,,0.28,,2016-05-01 12:52:52.165,,263
578789,587666,Gyro,,,,-23.963,31.585,36.037,,,,,,,,,,0.32,,2016-05-01 12:52:52.166,,263
578790,587667,Gyro,,,,36.951,8.963,29.268,,,,,,,,,,0.36,,2016-05-01 12:52:52.166,,263
578791,587668,Gyro,,,,61.159,-18.232,9.939,,,,,,,,,,0.4,,2016-05-01 12:52:52.166,,263
578792,587669,Gyro,,,,48.659,11.402,8.659,,,,,,,,,,0.44,,2016-05-01 12:52:52.167,,263
578793,587670,Gyro,,,,59.024,40.854,15.732,,,,,,,,,,0.48,,2016-05-01 12:52:52.167,,263
578794,587671,Gyro,,,,73.293,21.402,15.549,,,,,,,,,,0.52,,2016-05-01 12:52:52.167,,263
578795,587672,Gyro,,,,38.841,55.183,44.085,,,,,,,,,,0.56,,2016-05-01 12:52:52.168,,263
578796,587673,Gyro,,,,125.915,125.061,46.951,,,,,,,,,,0.6,,2016-05-01 12:52:52.168,,263
578797,587674,Gyro,,,,42.256,57.134,52.5,,,,,,,,,,0.64,,2016-05-01 12:52:52.168,,263
578798,587675,Gyro,,,,55.305,30.915,66.829,,,,,,,,,,0.68,,2016-05-01 12:52:52.169,,263
578799,587676,Gyro,,,,171.22,11.768,51.646,,,,,,,,,,0.72,,2016-05-01 12:52:52.169,,263
578800,587677,Gyro,,,,-33.11,-48.72,12.439,,,,,,,,,,0.76,,2016-05-01 12:52:52.169,,263
578801,587678,Gyro,,,,-149.39,0.0,2.744,,,,,,,,,,0.8,,2016-05-01 12:52:52.170,,263
578802,587679,Gyro,,,,-42.439,-16.098,-1.098,,,,,,,,,,0.84,,2016-05-01 12:52:52.170,,263
578803,587680,Gyro,,,,-7.5,-121.89,-11.037,,,,,,,,,,0.88,,2016-05-01 12:52:52.170,,263
578804,587681,Gyro,,,,-41.585,-85.183,0.0,,,,,,,,,,0.92,,2016-05-01 12:52:52.171,,263
578805,587682,Gyro,,,,-149.268,-47.988,1.89,,,,,,,,,,0.96,,2016-05-01 12:52:52.171,,263
578806,587683,Gyro,,,,-95.244,18.11,-9.451,,,,,,,,,,1.0,,2016-05-01 12:52:52.171,,263
578807,587684,Gyro,,,,141.402,-48.598,-17.866,,,,,,,,,,1.04,,2016-05-01 12:52:52.172,,263
578808,587685,Gyro,,,,85.488,-163.415,-20.427,,,,,,,,,,1.08,,2016-05-01 12:52:52.172,,263
578809,587686,Gyro,,,,-76.22,-120.0,-30.793,,,,,,,,,,1.12,,2016-05-01 12:52:52.172,,263
578810,587687,Gyro,,,,-127.256,-126.159,-61.22,,,,,,,,,,1.16,,2016-05-01 12:52:52.173,,263
578811,587688,Gyro,,,,2.988,-110.244,-47.195,,,,,,,,,,1.2,,2016-05-01 12:52:52.173,,263
578812,587689,Gyro,,,,56.159,-111.463,-29.085,,,,,,,,,,1.24,,2016-05-01 12:52:52.173,,263
578813,587690,Gyro,,,,5.244,-68.598,-24.146,,,,,,,,,,1.28,,2016-05-01 12:52:52.174,,263
578814,587691,Gyro,,,,43.354,-53.232,-21.037,,,,,,,,,,1.32,,2016-05-01 12:52:52.174,,263
578815,587692,Gyro,,,,64.268,-67.622,-21.89,,,,,,,,,,1.36,,2016-05-01 12:52:52.174,,263
578816,587693,Gyro,,,,15.854,-73.293,-22.256,,,,,,,,,,1.4,,2016-05-01 12:52:52.175,,263
578817,587694,Gyro,,,,-14.207,-101.22,-24.085,,,,,,,,,,1.44,,2016-05-01 12:52:52.175,,263
578818,587695,Gyro,,,,-7.561,-79.695,-26.707,,,,,,,,,,1.48,,2016-05-01 12:52:52.175,,263
578819,587696,Gyro,,,,-1.159,-83.963,-27.5,,,,,,,,,,1.52,,2016-05-01 12:52:52.176,,263
578820,587697,Gyro,,,,-2.317,-61.341,-20.976,,,,,,,,,,1.56,,2016-05-01 12:52:52.176,,263
578821,587698,Gyro,,,,-16.22,-30.427,-19.146,,,,,,,,,,1.6,,2016-05-01 12:52:52.177,,263
578822,587699,Gyro,,,,-7.073,-63.537,-17.134,,,,,,,,,,1.64,,2016-05-01 12:52:52.177,,263
578823,587700,Gyro,,,,-7.256,-61.463,-12.439,,,,,,,,,,1.68,,2016-05-01 12:52:52.178,,263
578824,587701,Gyro,,,,1.646,-30.183,-9.756,,,,,,,,,,1.72,,2016-05-01 12:52:52.178,,263
578825,587702,Gyro,,,,6.585,-21.28,-7.012,,,,,,,,,,1.76,,2016-05-01 12:52:52.178,,263
578826,587703,Gyro,,,,0.976,-12.683,-1.707,,,,,,,,,,1.8,,2016-05-01 12:52:52.178,,263
578827,587704,Gyro,,,,6.707,-4.39,3.11,,,,,,,,,,1.84,,2016-05-01 12:52:52.179,,263
578828,587705,Gyro,,,,11.159,2.927,5.61,,,,,,,,,,1.88,,2016-05-01 12:52:52.179,,263
578829,587706,Gyro,,,,2.927,-4.695,7.195,,,,,,,,,,1.92,,2016-05-01 12:52:52.179,,263
578830,587707,Gyro,,,,9.817,1.707,6.585,,,,,,,,,,1.96,,2016-05-01 12:52:52.180,,263
578831,587708,Gyro,,,,6.28,0.976,7.012,,,,,,,,,,2.0,,2016-05-01 12:52:52.180,,263
578832,587709,Gyro,,,,-0.305,1.22,8.232,,,,,,,,,,2.04,,2016-05-01 12:52:52.180,,263
578833,587710,Gyro,,,,5.427,6.28,7.195,,,,,,,,,,2.08,,2016-05-01 12:52:52.181,,263
578834,587711,Gyro,,,,11.707,4.207,6.646,,,,,,,,,,2.12,,2016-05-01 12:52:52.181,,263
578835,587712,Gyro,,,,17.866,-1.768,7.134,,,,,,,,,,2.16,,2016-05-01 12:52:52.181,,263
578836,587713,Gyro,,,,15.305,-1.585,8.415,,,,,,,,,,2.2,,2016-05-01 12:52:52.182,,263
578837,587714,Gyro,,,,10.183,-2.683,6.524,,,,,,,,,,2.24,,2016-05-01 12:52:52.182,,263
